hand,.thisRepN,.thisTrialN,.thisN,.thisIndex,block,correctResp,userResp,RT,evaluation,setLevel,subjectID,age,date,experiment_type,
"[<set_utils.cards.Card object at 0x142cc6b80>, <set_utils.cards.Card object at 0x142cc6b80>, <set_utils.cards.Card object at 0x142cc6d00>]",0,0,0,23,1,False,False,1.7533393420744687,correct,,am,22,2023-07-25_13h32.39.614,Standard,
"[<set_utils.cards.Card object at 0x142cc6b80>, <set_utils.cards.Card object at 0x142cc6b80>, <set_utils.cards.Card object at 0x142cc6d00>]",0,1,1,12,1,False,False,1.7113141538575292,correct,,am,22,2023-07-25_13h32.39.614,Standard,
"[<set_utils.cards.Card object at 0x142cc6b80>, <set_utils.cards.Card object at 0x142cc6b80>, <set_utils.cards.Card object at 0x142cc6b80>]",0,2,2,34,1,True,True,1.3087083869613707,correct,0,am,22,2023-07-25_13h32.39.614,Standard,
"[<set_utils.cards.Card object at 0x142cc6d00>, <set_utils.cards.Card object at 0x142cc6b80>, <set_utils.cards.Card object at 0x142cc6bb0>]",0,3,3,28,1,True,False,4.393306753132492,incorrect,1,am,22,2023-07-25_13h32.39.614,Standard,
"[<set_utils.cards.Card object at 0x142cc6bb0>, <set_utils.cards.Card object at 0x142cc6b80>, <set_utils.cards.Card object at 0x142cc6bb0>]",0,4,4,17,1,False,True,1.1462363360915333,incorrect,,am,22,2023-07-25_13h32.39.614,Standard,
"[<set_utils.cards.Card object at 0x142cc6b80>, <set_utils.cards.Card object at 0x142cc6d00>, <set_utils.cards.Card object at 0x142cc6bb0>]",0,5,5,27,1,True,True,1.927666018018499,correct,1,am,22,2023-07-25_13h32.39.614,Standard,
"[<set_utils.cards.Card object at 0x142cc6d00>, <set_utils.cards.Card object at 0x142cc6d00>, <set_utils.cards.Card object at 0x142cc6b80>]",0,6,6,5,1,False,False,1.3090410500299186,correct,,am,22,2023-07-25_13h32.39.614,Standard,
"[<set_utils.cards.Card object at 0x142cc6bb0>, <set_utils.cards.Card object at 0x142cc6d00>, <set_utils.cards.Card object at 0x142cc6d00>]",0,7,7,45,1,False,True,3.5917398820165545,incorrect,,am,22,2023-07-25_13h32.39.614,Standard,
"[<set_utils.cards.Card object at 0x142cc6bb0>, <set_utils.cards.Card object at 0x142cc6d00>, <set_utils.cards.Card object at 0x142cc6d00>]",0,8,8,25,1,False,False,3.302269090898335,correct,,am,22,2023-07-25_13h32.39.614,Standard,
"[<set_utils.cards.Card object at 0x142cc6d00>, <set_utils.cards.Card object at 0x142cc6b80>, <set_utils.cards.Card object at 0x142cc6bb0>]",0,9,9,6,1,True,True,1.047559519065544,correct,1,am,22,2023-07-25_13h32.39.614,Standard,
"[<set_utils.cards.Card object at 0x142cc6bb0>, <set_utils.cards.Card object at 0x142cc6b80>, <set_utils.cards.Card object at 0x142cc6d00>]",0,10,10,42,1,True,True,1.0176070630550385,correct,1,am,22,2023-07-25_13h32.39.614,Standard,
"[<set_utils.cards.Card object at 0x142cc6bb0>, <set_utils.cards.Card object at 0x142cc6b80>, <set_utils.cards.Card object at 0x142cc6d00>]",0,11,11,24,1,True,True,0.6929050029721111,correct,1,am,22,2023-07-25_13h32.39.614,Standard,
"[<set_utils.cards.Card object at 0x142cc6b80>, <set_utils.cards.Card object at 0x142cc6bb0>, <set_utils.cards.Card object at 0x142cc6bb0>]",0,12,12,14,1,False,False,0.6326706290710717,correct,,am,22,2023-07-25_13h32.39.614,Standard,
"[<set_utils.cards.Card object at 0x142cc6bb0>, <set_utils.cards.Card object at 0x142cc6b80>, <set_utils.cards.Card object at 0x142cc6b80>]",0,13,13,3,1,False,False,0.7182086321990937,correct,,am,22,2023-07-25_13h32.39.614,Standard,
"[<set_utils.cards.Card object at 0x142cc6d00>, <set_utils.cards.Card object at 0x142cc6d00>, <set_utils.cards.Card object at 0x142cc6d00>]",0,14,14,37,1,True,True,1.2316554200369865,correct,0,am,22,2023-07-25_13h32.39.614,Standard,
"[<set_utils.cards.Card object at 0x142cc6bb0>, <set_utils.cards.Card object at 0x142cc6d00>, <set_utils.cards.Card object at 0x142cc6d00>]",0,15,15,32,1,False,False,0.7598846149630845,correct,,am,22,2023-07-25_13h32.39.614,Standard,
"[<set_utils.cards.Card object at 0x142cc6bb0>, <set_utils.cards.Card object at 0x142cc6d00>, <set_utils.cards.Card object at 0x142cc6b80>]",0,16,16,18,1,True,True,1.4396663301158696,correct,1,am,22,2023-07-25_13h32.39.614,Standard,
"[<set_utils.cards.Card object at 0x142cc6d00>, <set_utils.cards.Card object at 0x142cc6bb0>, <set_utils.cards.Card object at 0x142cc6bb0>]",0,17,17,38,1,False,False,0.8445784079376608,correct,,am,22,2023-07-25_13h32.39.614,Standard,
"[<set_utils.cards.Card object at 0x142cc6b80>, <set_utils.cards.Card object at 0x142cc6d00>, <set_utils.cards.Card object at 0x142cc6b80>]",0,18,18,16,1,False,False,1.6879531810991466,correct,,am,22,2023-07-25_13h32.39.614,Standard,
"[<set_utils.cards.Card object at 0x142cc6d00>, <set_utils.cards.Card object at 0x142cc6bb0>, <set_utils.cards.Card object at 0x142cc6bb0>]",0,19,19,47,1,False,False,0.7892721819225699,correct,,am,22,2023-07-25_13h32.39.614,Standard,
"[<set_utils.cards.Card object at 0x142cc6bb0>, <set_utils.cards.Card object at 0x142cc6bb0>, <set_utils.cards.Card object at 0x142cc6bb0>]",0,20,20,15,1,True,True,0.6812028018757701,correct,0,am,22,2023-07-25_13h32.39.614,Standard,
"[<set_utils.cards.Card object at 0x142cc6bb0>, <set_utils.cards.Card object at 0x142cc6bb0>, <set_utils.cards.Card object at 0x142cc6bb0>]",0,21,21,20,1,True,True,0.5547708969097584,correct,0,am,22,2023-07-25_13h32.39.614,Standard,
"[<set_utils.cards.Card object at 0x142cc6bb0>, <set_utils.cards.Card object at 0x142cc6bb0>, <set_utils.cards.Card object at 0x142cc6bb0>]",0,22,22,35,1,True,True,1.0511797999497503,correct,0,am,22,2023-07-25_13h32.39.614,Standard,
"[<set_utils.cards.Card object at 0x142cc6bb0>, <set_utils.cards.Card object at 0x142cc6d00>, <set_utils.cards.Card object at 0x142cc6b80>]",0,23,23,44,1,True,True,1.058270141016692,correct,1,am,22,2023-07-25_13h32.39.614,Standard,
"[<set_utils.cards.Card object at 0x142cc6bb0>, <set_utils.cards.Card object at 0x142cc6d00>, <set_utils.cards.Card object at 0x142cc6b80>]",0,24,24,8,1,True,True,1.0968477590940893,correct,1,am,22,2023-07-25_13h32.39.614,Standard,
"[<set_utils.cards.Card object at 0x142cc6b80>, <set_utils.cards.Card object at 0x142cc6b80>, <set_utils.cards.Card object at 0x142cc6d00>]",0,25,25,46,1,False,False,0.7196967031341046,correct,,am,22,2023-07-25_13h32.39.614,Standard,
"[<set_utils.cards.Card object at 0x142cc6d00>, <set_utils.cards.Card object at 0x142cc6d00>, <set_utils.cards.Card object at 0x142cc6d00>]",0,26,26,22,1,True,True,0.7220728020183742,correct,0,am,22,2023-07-25_13h32.39.614,Standard,
"[<set_utils.cards.Card object at 0x142cc6d00>, <set_utils.cards.Card object at 0x142cc6bb0>, <set_utils.cards.Card object at 0x142cc6b80>]",0,27,27,9,1,True,True,1.0511451500933617,correct,1,am,22,2023-07-25_13h32.39.614,Standard,
"[<set_utils.cards.Card object at 0x142cc6d00>, <set_utils.cards.Card object at 0x142cc6b80>, <set_utils.cards.Card object at 0x142cc6b80>]",0,28,28,43,1,False,False,0.6359086958691478,correct,,am,22,2023-07-25_13h32.39.614,Standard,
"[<set_utils.cards.Card object at 0x142cc6b80>, <set_utils.cards.Card object at 0x142cc6bb0>, <set_utils.cards.Card object at 0x142cc6bb0>]",0,29,29,48,1,False,False,2.1331158909015357,correct,,am,22,2023-07-25_13h32.39.614,Standard,
"[<set_utils.cards.Card object at 0x142cc6b80>, <set_utils.cards.Card object at 0x142cc6d00>, <set_utils.cards.Card object at 0x142cc6b80>]",0,30,30,19,1,False,False,0.9567976868711412,correct,,am,22,2023-07-25_13h32.39.614,Standard,
"[<set_utils.cards.Card object at 0x142cc6d00>, <set_utils.cards.Card object at 0x142cc6b80>, <set_utils.cards.Card object at 0x142cc6b80>]",0,31,31,40,1,False,False,1.7442673309706151,correct,,am,22,2023-07-25_13h32.39.614,Standard,
"[<set_utils.cards.Card object at 0x142cc6d00>, <set_utils.cards.Card object at 0x142cc6b80>, <set_utils.cards.Card object at 0x142cc6bb0>]",0,32,32,31,1,True,True,0.7465478659141809,correct,1,am,22,2023-07-25_13h32.39.614,Standard,
"[<set_utils.cards.Card object at 0x142cc6b80>, <set_utils.cards.Card object at 0x142cc6bb0>, <set_utils.cards.Card object at 0x142cc6d00>]",0,33,33,11,1,True,True,1.1179237181786448,correct,1,am,22,2023-07-25_13h32.39.614,Standard,
"[<set_utils.cards.Card object at 0x142cc6b80>, <set_utils.cards.Card object at 0x142cc6d00>, <set_utils.cards.Card object at 0x142cc6bb0>]",0,34,34,7,1,True,True,2.262539644027129,correct,1,am,22,2023-07-25_13h32.39.614,Standard,
"[<set_utils.cards.Card object at 0x142cc6d00>, <set_utils.cards.Card object at 0x142cc6b80>, <set_utils.cards.Card object at 0x142cc6b80>]",0,35,35,0,1,False,False,0.7759944861754775,correct,,am,22,2023-07-25_13h32.39.614,Standard,
"[<set_utils.cards.Card object at 0x142cc6d00>, <set_utils.cards.Card object at 0x142cc6bb0>, <set_utils.cards.Card object at 0x142cc6d00>]",0,36,36,41,1,False,False,1.4875906291417778,correct,,am,22,2023-07-25_13h32.39.614,Standard,
"[<set_utils.cards.Card object at 0x142cc6b80>, <set_utils.cards.Card object at 0x142cc6b80>, <set_utils.cards.Card object at 0x142cc6bb0>]",0,37,37,49,1,False,False,1.103191774804145,correct,,am,22,2023-07-25_13h32.39.614,Standard,
"[<set_utils.cards.Card object at 0x142cc6b80>, <set_utils.cards.Card object at 0x142cc6b80>, <set_utils.cards.Card object at 0x142cc6b80>]",0,38,38,10,1,True,True,0.8890214620623738,correct,0,am,22,2023-07-25_13h32.39.614,Standard,
"[<set_utils.cards.Card object at 0x142cc6d00>, <set_utils.cards.Card object at 0x142cc6d00>, <set_utils.cards.Card object at 0x142cc6d00>]",0,39,39,21,1,True,True,0.6713543401565403,correct,0,am,22,2023-07-25_13h32.39.614,Standard,
"[<set_utils.cards.Card object at 0x142cc6d00>, <set_utils.cards.Card object at 0x142cc6d00>, <set_utils.cards.Card object at 0x142cc6bb0>]",0,40,40,1,1,False,False,0.9159043340478092,correct,,am,22,2023-07-25_13h32.39.614,Standard,
"[<set_utils.cards.Card object at 0x142cc6d00>, <set_utils.cards.Card object at 0x142cc6bb0>, <set_utils.cards.Card object at 0x142cc6b80>]",0,41,41,2,1,True,True,0.9419745998457074,correct,1,am,22,2023-07-25_13h32.39.614,Standard,
"[<set_utils.cards.Card object at 0x142cc6b80>, <set_utils.cards.Card object at 0x142cc6bb0>, <set_utils.cards.Card object at 0x142cc6d00>]",0,42,42,36,1,True,True,2.4413836759049445,correct,1,am,22,2023-07-25_13h32.39.614,Standard,
"[<set_utils.cards.Card object at 0x142cc6d00>, <set_utils.cards.Card object at 0x142cc6d00>, <set_utils.cards.Card object at 0x142cc6b80>]",0,43,43,30,1,False,False,1.4883260477799922,correct,,am,22,2023-07-25_13h32.39.614,Standard,
"[<set_utils.cards.Card object at 0x142cc6b80>, <set_utils.cards.Card object at 0x142cc6b80>, <set_utils.cards.Card object at 0x142cc6b80>]",0,44,44,13,1,True,True,0.9664686750620604,correct,0,am,22,2023-07-25_13h32.39.614,Standard,
"[<set_utils.cards.Card object at 0x142cc6b80>, <set_utils.cards.Card object at 0x142cc6d00>, <set_utils.cards.Card object at 0x142cc6b80>]",0,45,45,33,1,False,False,0.9838208900764585,correct,,am,22,2023-07-25_13h32.39.614,Standard,
"[<set_utils.cards.Card object at 0x142cc6b80>, <set_utils.cards.Card object at 0x142cc6d00>, <set_utils.cards.Card object at 0x142cc6bb0>]",0,46,46,29,1,True,True,1.3126311369705945,correct,1,am,22,2023-07-25_13h32.39.614,Standard,
"[<set_utils.cards.Card object at 0x142cc6bb0>, <set_utils.cards.Card object at 0x142cc6d00>, <set_utils.cards.Card object at 0x142cc6d00>]",0,47,47,26,1,False,False,1.2853185371495783,correct,,am,22,2023-07-25_13h32.39.614,Standard,
"[<set_utils.cards.Card object at 0x142cc6d00>, <set_utils.cards.Card object at 0x142cc6d00>, <set_utils.cards.Card object at 0x142cc6d00>]",0,48,48,39,1,True,True,0.5064872428774834,correct,0,am,22,2023-07-25_13h32.39.614,Standard,
"[<set_utils.cards.Card object at 0x142cc6b80>, <set_utils.cards.Card object at 0x142cc6d00>, <set_utils.cards.Card object at 0x142cc6b80>]",0,49,49,4,1,False,False,0.8648018969688565,correct,,am,22,2023-07-25_13h32.39.614,Standard,
"[<set_utils.cards.Card object at 0x142cc6b80>, <set_utils.cards.Card object at 0x142cc6bb0>, <set_utils.cards.Card object at 0x142cc6d00>]",0,0,0,13,2,True,True,0.8841050050687045,correct,1,am,22,2023-07-25_13h32.39.614,Standard,
"[<set_utils.cards.Card object at 0x142cc6f40>, <set_utils.cards.Card object at 0x142cc6d60>, <set_utils.cards.Card object at 0x142cc6dc0>]",0,1,1,48,2,False,Missed,,omission,,am,22,2023-07-25_13h32.39.614,Standard,
"[<set_utils.cards.Card object at 0x142cc6e80>, <set_utils.cards.Card object at 0x142cc6ee0>, <set_utils.cards.Card object at 0x142cc6dc0>]",0,2,2,42,2,False,False,1.7785245219711214,correct,,am,22,2023-07-25_13h32.39.614,Standard,
"[<set_utils.cards.Card object at 0x142cc6dc0>, <set_utils.cards.Card object at 0x142cc6e80>, <set_utils.cards.Card object at 0x142cc6d00>]",0,3,3,41,2,True,True,1.2457707070279866,correct,2,am,22,2023-07-25_13h32.39.614,Standard,
"[<set_utils.cards.Card object at 0x142cc6d60>, <set_utils.cards.Card object at 0x142cc6b80>, <set_utils.cards.Card object at 0x142cc6f40>]",0,4,4,9,2,True,True,1.5676469709724188,correct,2,am,22,2023-07-25_13h32.39.614,Standard,
"[<set_utils.cards.Card object at 0x142cc6f40>, <set_utils.cards.Card object at 0x142cc6e20>, <set_utils.cards.Card object at 0x142cc6d00>]",0,5,5,33,2,True,True,1.6575147930998355,correct,1,am,22,2023-07-25_13h32.39.614,Standard,
"[<set_utils.cards.Card object at 0x142cc6f40>, <set_utils.cards.Card object at 0x142cc6ee0>, <set_utils.cards.Card object at 0x142cc6e80>]",0,6,6,32,2,True,True,1.298457768978551,correct,1,am,22,2023-07-25_13h32.39.614,Standard,
"[<set_utils.cards.Card object at 0x142cc6d60>, <set_utils.cards.Card object at 0x142cc6b80>, <set_utils.cards.Card object at 0x142cc6e20>]",0,7,7,49,2,False,False,1.9092085019219667,correct,,am,22,2023-07-25_13h32.39.614,Standard,
"[<set_utils.cards.Card object at 0x142cc6ee0>, <set_utils.cards.Card object at 0x142cc6f40>, <set_utils.cards.Card object at 0x142cc6e80>]",0,8,8,35,2,True,True,0.9762164489366114,correct,1,am,22,2023-07-25_13h32.39.614,Standard,
"[<set_utils.cards.Card object at 0x142cc6b80>, <set_utils.cards.Card object at 0x142cc6f40>, <set_utils.cards.Card object at 0x142cc6ee0>]",0,9,9,25,2,False,False,0.8084182278253138,correct,,am,22,2023-07-25_13h32.39.614,Standard,
"[<set_utils.cards.Card object at 0x142cc6e20>, <set_utils.cards.Card object at 0x142cc6bb0>, <set_utils.cards.Card object at 0x142cc6ee0>]",0,10,10,11,2,True,True,0.7754117050208151,correct,2,am,22,2023-07-25_13h32.39.614,Standard,
"[<set_utils.cards.Card object at 0x142cc6d60>, <set_utils.cards.Card object at 0x142cc6e20>, <set_utils.cards.Card object at 0x142cc6d00>]",0,11,11,46,2,False,False,0.9474742340389639,correct,,am,22,2023-07-25_13h32.39.614,Standard,
"[<set_utils.cards.Card object at 0x142cc6d00>, <set_utils.cards.Card object at 0x142cc6b80>, <set_utils.cards.Card object at 0x142cc6bb0>]",0,12,12,24,2,True,True,0.6528566800989211,correct,1,am,22,2023-07-25_13h32.39.614,Standard,
"[<set_utils.cards.Card object at 0x142cc6bb0>, <set_utils.cards.Card object at 0x142cc6e80>, <set_utils.cards.Card object at 0x142cc6e20>]",0,13,13,34,2,False,True,0.8879065699875355,incorrect,,am,22,2023-07-25_13h32.39.614,Standard,
"[<set_utils.cards.Card object at 0x142cc6dc0>, <set_utils.cards.Card object at 0x142cc6ee0>, <set_utils.cards.Card object at 0x142cc6b80>]",0,14,14,0,2,True,True,2.196233988041058,correct,1,am,22,2023-07-25_13h32.39.614,Standard,
"[<set_utils.cards.Card object at 0x142cc6e80>, <set_utils.cards.Card object at 0x142cc6b80>, <set_utils.cards.Card object at 0x142cc6dc0>]",0,15,15,16,2,False,True,1.0647341620642692,incorrect,,am,22,2023-07-25_13h32.39.614,Standard,
"[<set_utils.cards.Card object at 0x142cc6e20>, <set_utils.cards.Card object at 0x142cc6b80>, <set_utils.cards.Card object at 0x142cc6e80>]",0,16,16,31,2,True,True,1.6863179709762335,correct,2,am,22,2023-07-25_13h32.39.614,Standard,
"[<set_utils.cards.Card object at 0x142cc6bb0>, <set_utils.cards.Card object at 0x142cc6dc0>, <set_utils.cards.Card object at 0x142cc6b80>]",0,17,17,44,2,False,False,0.8236326600890607,correct,,am,22,2023-07-25_13h32.39.614,Standard,
"[<set_utils.cards.Card object at 0x142cc6f40>, <set_utils.cards.Card object at 0x142cc6dc0>, <set_utils.cards.Card object at 0x142cc6bb0>]",0,18,18,5,2,True,True,1.4532900860067457,correct,2,am,22,2023-07-25_13h32.39.614,Standard,
"[<set_utils.cards.Card object at 0x142cc6b80>, <set_utils.cards.Card object at 0x142cc6d60>, <set_utils.cards.Card object at 0x142cc6f40>]",0,19,19,28,2,True,True,0.7065938832238317,correct,2,am,22,2023-07-25_13h32.39.614,Standard,
"[<set_utils.cards.Card object at 0x142cc6e80>, <set_utils.cards.Card object at 0x142cc6dc0>, <set_utils.cards.Card object at 0x142cc6d00>]",0,20,20,15,2,True,True,0.8087097350507975,correct,2,am,22,2023-07-25_13h32.39.614,Standard,
"[<set_utils.cards.Card object at 0x142cc6f40>, <set_utils.cards.Card object at 0x142cc6e80>, <set_utils.cards.Card object at 0x142cc6d00>]",0,21,21,7,2,False,False,0.5794812850654125,correct,,am,22,2023-07-25_13h32.39.614,Standard,
"[<set_utils.cards.Card object at 0x142cc6f40>, <set_utils.cards.Card object at 0x142cc6e80>, <set_utils.cards.Card object at 0x142cc6dc0>]",0,22,22,36,2,False,False,0.6328606510069221,correct,,am,22,2023-07-25_13h32.39.614,Standard,
"[<set_utils.cards.Card object at 0x142cc6f40>, <set_utils.cards.Card object at 0x142cc6d00>, <set_utils.cards.Card object at 0x142cc6e20>]",0,23,23,17,2,True,True,0.6031044379342347,correct,1,am,22,2023-07-25_13h32.39.614,Standard,
"[<set_utils.cards.Card object at 0x142cc6bb0>, <set_utils.cards.Card object at 0x142cc6d00>, <set_utils.cards.Card object at 0x142cc6dc0>]",0,24,24,22,2,False,True,0.5611418320331722,incorrect,,am,22,2023-07-25_13h32.39.614,Standard,
"[<set_utils.cards.Card object at 0x142cc6e80>, <set_utils.cards.Card object at 0x142cc6b80>, <set_utils.cards.Card object at 0x142cc6e20>]",0,25,25,45,2,True,True,0.809150004060939,correct,2,am,22,2023-07-25_13h32.39.614,Standard,
"[<set_utils.cards.Card object at 0x142cc6f40>, <set_utils.cards.Card object at 0x142cc6b80>, <set_utils.cards.Card object at 0x142cc6d60>]",0,26,26,26,2,True,True,1.0747682119254023,correct,2,am,22,2023-07-25_13h32.39.614,Standard,
"[<set_utils.cards.Card object at 0x142cc6bb0>, <set_utils.cards.Card object at 0x142cc6d00>, <set_utils.cards.Card object at 0x142cc6e80>]",0,27,27,39,2,False,False,0.9013104841578752,correct,,am,22,2023-07-25_13h32.39.614,Standard,
"[<set_utils.cards.Card object at 0x142cc6bb0>, <set_utils.cards.Card object at 0x142cc6ee0>, <set_utils.cards.Card object at 0x142cc6b80>]",0,28,28,37,2,False,True,0.6080566421151161,incorrect,,am,22,2023-07-25_13h32.39.614,Standard,
"[<set_utils.cards.Card object at 0x142cc6dc0>, <set_utils.cards.Card object at 0x142cc6e80>, <set_utils.cards.Card object at 0x142cc6e20>]",0,29,29,18,2,False,True,1.288987518986687,incorrect,,am,22,2023-07-25_13h32.39.614,Standard,
"[<set_utils.cards.Card object at 0x142cc6dc0>, <set_utils.cards.Card object at 0x142cc6e80>, <set_utils.cards.Card object at 0x142cc6ee0>]",0,30,30,3,2,False,False,0.9473259830847383,correct,,am,22,2023-07-25_13h32.39.614,Standard,
"[<set_utils.cards.Card object at 0x142cc6e80>, <set_utils.cards.Card object at 0x142cc6ee0>, <set_utils.cards.Card object at 0x142cc6f40>]",0,31,31,21,2,True,True,0.6813723498489708,correct,1,am,22,2023-07-25_13h32.39.614,Standard,
"[<set_utils.cards.Card object at 0x142cc6ee0>, <set_utils.cards.Card object at 0x142cc6d60>, <set_utils.cards.Card object at 0x142cc6d00>]",0,32,32,29,2,True,True,1.0703313960693777,correct,2,am,22,2023-07-25_13h32.39.614,Standard,
"[<set_utils.cards.Card object at 0x142cc6d60>, <set_utils.cards.Card object at 0x142cc6d00>, <set_utils.cards.Card object at 0x142cc6f40>]",0,33,33,10,2,False,True,1.33907855511643,incorrect,,am,22,2023-07-25_13h32.39.614,Standard,
"[<set_utils.cards.Card object at 0x142cc6f40>, <set_utils.cards.Card object at 0x142cc6dc0>, <set_utils.cards.Card object at 0x142cc6bb0>]",0,34,34,8,2,True,True,1.2219901129137725,correct,2,am,22,2023-07-25_13h32.39.614,Standard,
"[<set_utils.cards.Card object at 0x142cc6b80>, <set_utils.cards.Card object at 0x142cc6ee0>, <set_utils.cards.Card object at 0x142cc6e80>]",0,35,35,1,2,False,False,0.5756607751827687,correct,,am,22,2023-07-25_13h32.39.614,Standard,
"[<set_utils.cards.Card object at 0x142cc6f40>, <set_utils.cards.Card object at 0x142cc6d00>, <set_utils.cards.Card object at 0x142cc6ee0>]",0,36,36,19,2,False,False,1.3090051468461752,correct,,am,22,2023-07-25_13h32.39.614,Standard,
"[<set_utils.cards.Card object at 0x142cc6d60>, <set_utils.cards.Card object at 0x142cc6bb0>, <set_utils.cards.Card object at 0x142cc6e80>]",0,37,37,47,2,True,True,0.834194955881685,correct,1,am,22,2023-07-25_13h32.39.614,Standard,
"[<set_utils.cards.Card object at 0x142cc6e20>, <set_utils.cards.Card object at 0x142cc6dc0>, <set_utils.cards.Card object at 0x142cc6d00>]",0,38,38,30,2,False,False,0.7891846660058945,correct,,am,22,2023-07-25_13h32.39.614,Standard,
"[<set_utils.cards.Card object at 0x142cc6d00>, <set_utils.cards.Card object at 0x142cc6bb0>, <set_utils.cards.Card object at 0x142cc6b80>]",0,39,39,27,2,True,True,2.5286428960971534,correct,1,am,22,2023-07-25_13h32.39.614,Standard,
"[<set_utils.cards.Card object at 0x142cc6b80>, <set_utils.cards.Card object at 0x142cc6bb0>, <set_utils.cards.Card object at 0x142cc6d00>]",0,40,40,20,2,True,True,0.5941599290817976,correct,1,am,22,2023-07-25_13h32.39.614,Standard,
"[<set_utils.cards.Card object at 0x142cc6e20>, <set_utils.cards.Card object at 0x142cc6b80>, <set_utils.cards.Card object at 0x142cc6bb0>]",0,41,41,43,2,False,False,0.7059633100870997,correct,,am,22,2023-07-25_13h32.39.614,Standard,
"[<set_utils.cards.Card object at 0x142cc6e80>, <set_utils.cards.Card object at 0x142cc6dc0>, <set_utils.cards.Card object at 0x142cc6d00>]",0,42,42,12,2,True,True,0.8218267930205911,correct,2,am,22,2023-07-25_13h32.39.614,Standard,
"[<set_utils.cards.Card object at 0x142cc6b80>, <set_utils.cards.Card object at 0x142cc6ee0>, <set_utils.cards.Card object at 0x142cc6d60>]",0,43,43,6,2,False,False,0.6991457159165293,correct,,am,22,2023-07-25_13h32.39.614,Standard,
"[<set_utils.cards.Card object at 0x142cc6f40>, <set_utils.cards.Card object at 0x142cc6d60>, <set_utils.cards.Card object at 0x142cc6b80>]",0,44,44,40,2,True,True,1.237737991148606,correct,2,am,22,2023-07-25_13h32.39.614,Standard,
"[<set_utils.cards.Card object at 0x142cc6d60>, <set_utils.cards.Card object at 0x142cc6f40>, <set_utils.cards.Card object at 0x142cc6d00>]",0,45,45,38,2,False,True,1.9159837968181819,incorrect,,am,22,2023-07-25_13h32.39.614,Standard,
"[<set_utils.cards.Card object at 0x142cc6bb0>, <set_utils.cards.Card object at 0x142cc6f40>, <set_utils.cards.Card object at 0x142cc6e80>]",0,46,46,14,2,False,False,2.2543377389665693,correct,,am,22,2023-07-25_13h32.39.614,Standard,
"[<set_utils.cards.Card object at 0x142cc6bb0>, <set_utils.cards.Card object at 0x142cc6e20>, <set_utils.cards.Card object at 0x142cc6d00>]",0,47,47,2,2,False,False,1.6054798029363155,correct,,am,22,2023-07-25_13h32.39.614,Standard,
"[<set_utils.cards.Card object at 0x142cc6dc0>, <set_utils.cards.Card object at 0x142cc6e20>, <set_utils.cards.Card object at 0x142cc6b80>]",0,48,48,23,2,False,False,0.8420939850620925,correct,,am,22,2023-07-25_13h32.39.614,Standard,
"[<set_utils.cards.Card object at 0x142cc6bb0>, <set_utils.cards.Card object at 0x142cc6d60>, <set_utils.cards.Card object at 0x142cc6e80>]",0,49,49,4,2,True,False,4.7301743370480835,incorrect,1,am,22,2023-07-25_13h32.39.614,Standard,
"[<set_utils.cards.Card object at 0x142ccb400>, <set_utils.cards.Card object at 0x142ccb340>, <set_utils.cards.Card object at 0x142ccb3a0>]",0,0,0,5,3,True,True,1.5030260940548033,correct,1,am,22,2023-07-25_13h32.39.614,Standard,
"[<set_utils.cards.Card object at 0x142cc6fa0>, <set_utils.cards.Card object at 0x142cc6bb0>, <set_utils.cards.Card object at 0x142ccb340>]",0,1,1,7,3,True,True,1.9566298839636147,correct,1,am,22,2023-07-25_13h32.39.614,Standard,
"[<set_utils.cards.Card object at 0x142cc6e20>, <set_utils.cards.Card object at 0x142ccb0a0>, <set_utils.cards.Card object at 0x142ccb100>]",0,2,2,22,3,False,False,0.96633200510405,correct,,am,22,2023-07-25_13h32.39.614,Standard,
"[<set_utils.cards.Card object at 0x142ccb2e0>, <set_utils.cards.Card object at 0x142ccb340>, <set_utils.cards.Card object at 0x142ccb220>]",0,3,3,45,3,False,False,1.6623953939415514,correct,,am,22,2023-07-25_13h32.39.614,Standard,
"[<set_utils.cards.Card object at 0x142ccb1c0>, <set_utils.cards.Card object at 0x142ccb220>, <set_utils.cards.Card object at 0x142ccb340>]",0,4,4,41,3,False,False,1.183329664170742,correct,,am,22,2023-07-25_13h32.39.614,Standard,
"[<set_utils.cards.Card object at 0x142ccb3a0>, <set_utils.cards.Card object at 0x142cc6ee0>, <set_utils.cards.Card object at 0x142ccb160>]",0,5,5,11,3,True,True,1.8168653440661728,correct,2,am,22,2023-07-25_13h32.39.614,Standard,
"[<set_utils.cards.Card object at 0x142ccb580>, <set_utils.cards.Card object at 0x142ccb400>, <set_utils.cards.Card object at 0x142ccb4c0>]",0,6,6,47,3,True,True,0.9205549189355224,correct,2,am,22,2023-07-25_13h32.39.614,Standard,
"[<set_utils.cards.Card object at 0x142cc6e20>, <set_utils.cards.Card object at 0x142ccb2e0>, <set_utils.cards.Card object at 0x142ccb400>]",0,7,7,43,3,True,True,0.9803397411014885,correct,2,am,22,2023-07-25_13h32.39.614,Standard,
"[<set_utils.cards.Card object at 0x142cc6dc0>, <set_utils.cards.Card object at 0x142cc6f40>, <set_utils.cards.Card object at 0x142cc6bb0>]",0,8,8,23,3,True,True,1.1705859920475632,correct,2,am,22,2023-07-25_13h32.39.614,Standard,
"[<set_utils.cards.Card object at 0x142cc6bb0>, <set_utils.cards.Card object at 0x142ccb460>, <set_utils.cards.Card object at 0x142ccb220>]",0,9,9,6,3,True,False,2.3307243259623647,incorrect,2,am,22,2023-07-25_13h32.39.614,Standard,
"[<set_utils.cards.Card object at 0x142ccb580>, <set_utils.cards.Card object at 0x142ccb4c0>, <set_utils.cards.Card object at 0x142ccb400>]",0,10,10,34,3,True,True,0.9491537278518081,correct,2,am,22,2023-07-25_13h32.39.614,Standard,
"[<set_utils.cards.Card object at 0x142ccb2e0>, <set_utils.cards.Card object at 0x142cc6d00>, <set_utils.cards.Card object at 0x142ccb520>]",0,11,11,20,3,True,True,1.105459962040186,correct,2,am,22,2023-07-25_13h32.39.614,Standard,
"[<set_utils.cards.Card object at 0x142ccb4c0>, <set_utils.cards.Card object at 0x142cc6b80>, <set_utils.cards.Card object at 0x142ccb0a0>]",0,12,12,3,3,False,True,0.985693691065535,incorrect,,am,22,2023-07-25_13h32.39.614,Standard,
"[<set_utils.cards.Card object at 0x142cc6ee0>, <set_utils.cards.Card object at 0x142cc6b80>, <set_utils.cards.Card object at 0x142cc6f40>]",0,13,13,48,3,False,False,4.654450862901285,correct,,am,22,2023-07-25_13h32.39.614,Standard,
"[<set_utils.cards.Card object at 0x142cc6fa0>, <set_utils.cards.Card object at 0x142ccb460>, <set_utils.cards.Card object at 0x142cc6e80>]",0,14,14,8,3,True,True,2.8175920201465487,correct,2,am,22,2023-07-25_13h32.39.614,Standard,
"[<set_utils.cards.Card object at 0x142ccb520>, <set_utils.cards.Card object at 0x142cc6e80>, <set_utils.cards.Card object at 0x142ccb040>]",0,15,15,18,3,True,True,2.0284216729924083,correct,3,am,22,2023-07-25_13h32.39.614,Standard,
"[<set_utils.cards.Card object at 0x142ccb520>, <set_utils.cards.Card object at 0x142cc6ee0>, <set_utils.cards.Card object at 0x142cc6fa0>]",0,16,16,0,3,True,True,0.8264603188727051,correct,3,am,22,2023-07-25_13h32.39.614,Standard,
"[<set_utils.cards.Card object at 0x142ccb4c0>, <set_utils.cards.Card object at 0x142ccb340>, <set_utils.cards.Card object at 0x142ccb160>]",0,17,17,38,3,False,False,0.9835242899134755,correct,,am,22,2023-07-25_13h32.39.614,Standard,
"[<set_utils.cards.Card object at 0x142ccb3a0>, <set_utils.cards.Card object at 0x142ccb160>, <set_utils.cards.Card object at 0x142ccb280>]",0,18,18,27,3,False,False,0.902828561142087,correct,,am,22,2023-07-25_13h32.39.614,Standard,
"[<set_utils.cards.Card object at 0x142ccb5e0>, <set_utils.cards.Card object at 0x142cc6e20>, <set_utils.cards.Card object at 0x142cc6e80>]",0,19,19,30,3,False,False,0.9079711600206792,correct,,am,22,2023-07-25_13h32.39.614,Standard,
"[<set_utils.cards.Card object at 0x142cc6ee0>, <set_utils.cards.Card object at 0x142ccb100>, <set_utils.cards.Card object at 0x142ccb400>]",0,20,20,17,3,True,True,0.8710174500010908,correct,3,am,22,2023-07-25_13h32.39.614,Standard,
"[<set_utils.cards.Card object at 0x142ccb2e0>, <set_utils.cards.Card object at 0x142cc6ee0>, <set_utils.cards.Card object at 0x142cc6b80>]",0,21,21,39,3,False,False,0.7998233519028872,correct,,am,22,2023-07-25_13h32.39.614,Standard,
"[<set_utils.cards.Card object at 0x142ccb3a0>, <set_utils.cards.Card object at 0x142ccb100>, <set_utils.cards.Card object at 0x142cc6f40>]",0,22,22,42,3,True,True,1.958291499176994,correct,3,am,22,2023-07-25_13h32.39.614,Standard,
"[<set_utils.cards.Card object at 0x142cc6e20>, <set_utils.cards.Card object at 0x142ccb2e0>, <set_utils.cards.Card object at 0x142ccb400>]",0,23,23,13,3,True,True,2.2183200551662594,correct,2,am,22,2023-07-25_13h32.39.614,Standard,
"[<set_utils.cards.Card object at 0x142cc6f40>, <set_utils.cards.Card object at 0x142cc6dc0>, <set_utils.cards.Card object at 0x142cc6bb0>]",0,24,24,12,3,True,True,1.5990571870934218,correct,2,am,22,2023-07-25_13h32.39.614,Standard,
"[<set_utils.cards.Card object at 0x142cc6f40>, <set_utils.cards.Card object at 0x142cc6e20>, <set_utils.cards.Card object at 0x142ccb640>]",0,25,25,16,3,False,False,1.4222335249651223,correct,,am,22,2023-07-25_13h32.39.614,Standard,
"[<set_utils.cards.Card object at 0x142ccb580>, <set_utils.cards.Card object at 0x142cc6e80>, <set_utils.cards.Card object at 0x142ccb220>]",0,26,26,24,3,True,True,0.7234058550093323,correct,1,am,22,2023-07-25_13h32.39.614,Standard,
"[<set_utils.cards.Card object at 0x142cc6e80>, <set_utils.cards.Card object at 0x142ccb640>, <set_utils.cards.Card object at 0x142ccb2e0>]",0,27,27,49,3,False,True,2.382739966036752,incorrect,,am,22,2023-07-25_13h32.39.614,Standard,
"[<set_utils.cards.Card object at 0x142ccb4c0>, <set_utils.cards.Card object at 0x142ccb160>, <set_utils.cards.Card object at 0x142cc6dc0>]",0,28,28,19,3,True,True,1.00672761304304,correct,1,am,22,2023-07-25_13h32.39.614,Standard,
"[<set_utils.cards.Card object at 0x142cc6f40>, <set_utils.cards.Card object at 0x142ccb340>, <set_utils.cards.Card object at 0x142ccb100>]",0,29,29,35,3,False,False,0.8079966551158577,correct,,am,22,2023-07-25_13h32.39.614,Standard,
"[<set_utils.cards.Card object at 0x142cc6fa0>, <set_utils.cards.Card object at 0x142ccb460>, <set_utils.cards.Card object at 0x142ccb160>]",0,30,30,31,3,False,True,0.7197467910591513,incorrect,,am,22,2023-07-25_13h32.39.614,Standard,
"[<set_utils.cards.Card object at 0x142ccb460>, <set_utils.cards.Card object at 0x142ccb4c0>, <set_utils.cards.Card object at 0x142ccb520>]",0,31,31,21,3,True,True,0.8548244240228087,correct,1,am,22,2023-07-25_13h32.39.614,Standard,
"[<set_utils.cards.Card object at 0x142ccb460>, <set_utils.cards.Card object at 0x142ccb160>, <set_utils.cards.Card object at 0x142ccb220>]",0,32,32,46,3,False,False,1.0564507232047617,correct,,am,22,2023-07-25_13h32.39.614,Standard,
"[<set_utils.cards.Card object at 0x142cc6ee0>, <set_utils.cards.Card object at 0x142cc6b80>, <set_utils.cards.Card object at 0x142cc6d60>]",0,33,33,28,3,False,True,1.0416753019671887,incorrect,,am,22,2023-07-25_13h32.39.614,Standard,
"[<set_utils.cards.Card object at 0x142ccb520>, <set_utils.cards.Card object at 0x142ccb340>, <set_utils.cards.Card object at 0x142ccb5e0>]",0,34,34,25,3,True,False,1.7540722580160946,incorrect,2,am,22,2023-07-25_13h32.39.614,Standard,
"[<set_utils.cards.Card object at 0x142cc6fa0>, <set_utils.cards.Card object at 0x142ccb400>, <set_utils.cards.Card object at 0x142cc6b80>]",0,35,35,2,3,True,False,0.8511654990725219,incorrect,2,am,22,2023-07-25_13h32.39.614,Standard,
"[<set_utils.cards.Card object at 0x142cc6bb0>, <set_utils.cards.Card object at 0x142cc6ee0>, <set_utils.cards.Card object at 0x142cc6e20>]",0,36,36,29,3,True,True,1.1523049678653479,correct,2,am,22,2023-07-25_13h32.39.614,Standard,
"[<set_utils.cards.Card object at 0x142cc6e20>, <set_utils.cards.Card object at 0x142ccb460>, <set_utils.cards.Card object at 0x142cc6d60>]",0,37,37,32,3,False,False,1.0518890859093517,correct,,am,22,2023-07-25_13h32.39.614,Standard,
"[<set_utils.cards.Card object at 0x142ccb4c0>, <set_utils.cards.Card object at 0x142ccb2e0>, <set_utils.cards.Card object at 0x142ccb1c0>]",0,38,38,40,3,False,False,1.0256484930869192,correct,,am,22,2023-07-25_13h32.39.614,Standard,
"[<set_utils.cards.Card object at 0x142cc6e20>, <set_utils.cards.Card object at 0x142cc6d60>, <set_utils.cards.Card object at 0x142ccb220>]",0,39,39,1,3,False,False,0.9178841828834265,correct,,am,22,2023-07-25_13h32.39.614,Standard,
"[<set_utils.cards.Card object at 0x142cc6ee0>, <set_utils.cards.Card object at 0x142ccb040>, <set_utils.cards.Card object at 0x142cc6fa0>]",0,40,40,4,3,False,False,0.7736578420735896,correct,,am,22,2023-07-25_13h32.39.614,Standard,
"[<set_utils.cards.Card object at 0x142cc6fa0>, <set_utils.cards.Card object at 0x142ccb520>, <set_utils.cards.Card object at 0x142ccb220>]",0,41,41,15,3,False,False,0.9350579790771008,correct,,am,22,2023-07-25_13h32.39.614,Standard,
"[<set_utils.cards.Card object at 0x142ccb580>, <set_utils.cards.Card object at 0x142ccb4c0>, <set_utils.cards.Card object at 0x142ccb400>]",0,42,42,44,3,True,True,0.9854147711303085,correct,2,am,22,2023-07-25_13h32.39.614,Standard,
"[<set_utils.cards.Card object at 0x142ccb100>, <set_utils.cards.Card object at 0x142ccb220>, <set_utils.cards.Card object at 0x142cc6fa0>]",0,43,43,26,3,True,True,0.7792119879741222,correct,1,am,22,2023-07-25_13h32.39.614,Standard,
"[<set_utils.cards.Card object at 0x142ccb3a0>, <set_utils.cards.Card object at 0x142cc6b80>, <set_utils.cards.Card object at 0x142ccb040>]",0,44,44,36,3,True,True,0.7563389069400728,correct,1,am,22,2023-07-25_13h32.39.614,Standard,
"[<set_utils.cards.Card object at 0x142ccb400>, <set_utils.cards.Card object at 0x142cc6b80>, <set_utils.cards.Card object at 0x142cc6bb0>]",0,45,45,10,3,False,False,0.7273096719291061,correct,,am,22,2023-07-25_13h32.39.614,Standard,
"[<set_utils.cards.Card object at 0x142ccb640>, <set_utils.cards.Card object at 0x142ccb400>, <set_utils.cards.Card object at 0x142ccb4c0>]",0,46,46,9,3,False,True,0.581770780030638,incorrect,,am,22,2023-07-25_13h32.39.614,Standard,
"[<set_utils.cards.Card object at 0x142ccb520>, <set_utils.cards.Card object at 0x142ccb040>, <set_utils.cards.Card object at 0x142ccb280>]",0,47,47,37,3,False,False,0.857572115957737,correct,,am,22,2023-07-25_13h32.39.614,Standard,
"[<set_utils.cards.Card object at 0x142ccb0a0>, <set_utils.cards.Card object at 0x142cc6f40>, <set_utils.cards.Card object at 0x142ccb2e0>]",0,48,48,33,3,False,False,0.6925569181330502,correct,,am,22,2023-07-25_13h32.39.614,Standard,
"[<set_utils.cards.Card object at 0x142ccb5e0>, <set_utils.cards.Card object at 0x142ccb280>, <set_utils.cards.Card object at 0x142cc6d60>]",0,49,49,14,3,False,True,0.6124511600937694,incorrect,,am,22,2023-07-25_13h32.39.614,Standard,
