hand,.thisRepN,.thisTrialN,.thisN,.thisIndex,block,correctResp,setLevel,userResp,RT,evaluation,subjectID,age,date,experiment_type,
"[<set_utils.cards.Card object at 0x139cd7cd0>, <set_utils.cards.Card object at 0x139cd7b50>, <set_utils.cards.Card object at 0x139cd7b80>]",0,0,0,34,1,True,1,False,9.487469790969044,incorrect,JW,24,2023-07-27_12h39.32.055,Standard,
"[<set_utils.cards.Card object at 0x139cd7cd0>, <set_utils.cards.Card object at 0x139cd7cd0>, <set_utils.cards.Card object at 0x139cd7cd0>]",0,1,1,9,1,True,0,True,4.125624362146482,correct,JW,24,2023-07-27_12h39.32.055,Standard,
"[<set_utils.cards.Card object at 0x139cd7b80>, <set_utils.cards.Card object at 0x139cd7b80>, <set_utils.cards.Card object at 0x139cd7b50>]",0,2,2,26,1,False,,False,2.596676249988377,correct,JW,24,2023-07-27_12h39.32.055,Standard,
"[<set_utils.cards.Card object at 0x139cd7cd0>, <set_utils.cards.Card object at 0x139cd7cd0>, <set_utils.cards.Card object at 0x139cd7cd0>]",0,3,3,17,1,True,0,True,3.722992273978889,correct,JW,24,2023-07-27_12h39.32.055,Standard,
"[<set_utils.cards.Card object at 0x139cd7b50>, <set_utils.cards.Card object at 0x139cd7b50>, <set_utils.cards.Card object at 0x139cd7cd0>]",0,4,4,33,1,False,,False,2.8713206951506436,correct,JW,24,2023-07-27_12h39.32.055,Standard,
"[<set_utils.cards.Card object at 0x139cd7b80>, <set_utils.cards.Card object at 0x139cd7b50>, <set_utils.cards.Card object at 0x139cd7b50>]",0,5,5,7,1,False,,False,1.545716281980276,correct,JW,24,2023-07-27_12h39.32.055,Standard,
"[<set_utils.cards.Card object at 0x139cd7b80>, <set_utils.cards.Card object at 0x139cd7b50>, <set_utils.cards.Card object at 0x139cd7cd0>]",0,6,6,30,1,True,1,True,2.7736396791879088,correct,JW,24,2023-07-27_12h39.32.055,Standard,
"[<set_utils.cards.Card object at 0x139cd7cd0>, <set_utils.cards.Card object at 0x139cd7b80>, <set_utils.cards.Card object at 0x139cd7b80>]",0,7,7,4,1,False,,False,2.648568960139528,correct,JW,24,2023-07-27_12h39.32.055,Standard,
"[<set_utils.cards.Card object at 0x139cd7cd0>, <set_utils.cards.Card object at 0x139cd7b80>, <set_utils.cards.Card object at 0x139cd7b80>]",0,8,8,11,1,False,,False,0.9473684490658343,correct,JW,24,2023-07-27_12h39.32.055,Standard,
"[<set_utils.cards.Card object at 0x139cd7b50>, <set_utils.cards.Card object at 0x139cd7cd0>, <set_utils.cards.Card object at 0x139cd7b50>]",0,9,9,0,1,False,,False,1.1701440080069005,correct,JW,24,2023-07-27_12h39.32.055,Standard,
"[<set_utils.cards.Card object at 0x139cd7b50>, <set_utils.cards.Card object at 0x139cd7b50>, <set_utils.cards.Card object at 0x139cd7b80>]",0,10,10,42,1,False,,False,1.5677159631159157,correct,JW,24,2023-07-27_12h39.32.055,Standard,
"[<set_utils.cards.Card object at 0x139cd7b80>, <set_utils.cards.Card object at 0x139cd7b80>, <set_utils.cards.Card object at 0x139cd7b50>]",0,11,11,22,1,False,,False,1.1896695420145988,correct,JW,24,2023-07-27_12h39.32.055,Standard,
"[<set_utils.cards.Card object at 0x139cd7b80>, <set_utils.cards.Card object at 0x139cd7b80>, <set_utils.cards.Card object at 0x139cd7b80>]",0,12,12,46,1,True,0,True,0.787938182009384,correct,JW,24,2023-07-27_12h39.32.055,Standard,
"[<set_utils.cards.Card object at 0x139cd7b50>, <set_utils.cards.Card object at 0x139cd7b80>, <set_utils.cards.Card object at 0x139cd7b80>]",0,13,13,40,1,False,,False,0.9356258879415691,correct,JW,24,2023-07-27_12h39.32.055,Standard,
"[<set_utils.cards.Card object at 0x139cd7b50>, <set_utils.cards.Card object at 0x139cd7cd0>, <set_utils.cards.Card object at 0x139cd7b80>]",0,14,14,8,1,True,1,True,1.975393985863775,correct,JW,24,2023-07-27_12h39.32.055,Standard,
"[<set_utils.cards.Card object at 0x139cd7cd0>, <set_utils.cards.Card object at 0x139cd7b80>, <set_utils.cards.Card object at 0x139cd7b50>]",0,15,15,47,1,True,1,True,1.2714453290682286,correct,JW,24,2023-07-27_12h39.32.055,Standard,
"[<set_utils.cards.Card object at 0x139cd7b80>, <set_utils.cards.Card object at 0x139cd7b50>, <set_utils.cards.Card object at 0x139cd7cd0>]",0,16,16,43,1,True,1,True,0.9318793630227447,correct,JW,24,2023-07-27_12h39.32.055,Standard,
"[<set_utils.cards.Card object at 0x139cd7b80>, <set_utils.cards.Card object at 0x139cd7b80>, <set_utils.cards.Card object at 0x139cd7b80>]",0,17,17,16,1,True,0,True,1.2365945070050657,correct,JW,24,2023-07-27_12h39.32.055,Standard,
"[<set_utils.cards.Card object at 0x139cd7cd0>, <set_utils.cards.Card object at 0x139cd7b80>, <set_utils.cards.Card object at 0x139cd7cd0>]",0,18,18,36,1,False,,False,1.311962943058461,correct,JW,24,2023-07-27_12h39.32.055,Standard,
"[<set_utils.cards.Card object at 0x139cd7b50>, <set_utils.cards.Card object at 0x139cd7b80>, <set_utils.cards.Card object at 0x139cd7cd0>]",0,19,19,24,1,True,1,True,1.3728909089695662,correct,JW,24,2023-07-27_12h39.32.055,Standard,
"[<set_utils.cards.Card object at 0x139cd7b50>, <set_utils.cards.Card object at 0x139cd7cd0>, <set_utils.cards.Card object at 0x139cd7b50>]",0,20,20,28,1,False,,True,1.5578026280272752,incorrect,JW,24,2023-07-27_12h39.32.055,Standard,
"[<set_utils.cards.Card object at 0x139cd7b50>, <set_utils.cards.Card object at 0x139cd7b50>, <set_utils.cards.Card object at 0x139cd7b50>]",0,21,21,38,1,True,0,True,1.1916637590620667,correct,JW,24,2023-07-27_12h39.32.055,Standard,
"[<set_utils.cards.Card object at 0x139cd7b50>, <set_utils.cards.Card object at 0x139cd7b50>, <set_utils.cards.Card object at 0x139cd7b80>]",0,22,22,21,1,False,,False,1.3586908229626715,correct,JW,24,2023-07-27_12h39.32.055,Standard,
"[<set_utils.cards.Card object at 0x139cd7cd0>, <set_utils.cards.Card object at 0x139cd7cd0>, <set_utils.cards.Card object at 0x139cd7cd0>]",0,23,23,1,1,True,0,True,0.9699172258842736,correct,JW,24,2023-07-27_12h39.32.055,Standard,
"[<set_utils.cards.Card object at 0x139cd7b80>, <set_utils.cards.Card object at 0x139cd7cd0>, <set_utils.cards.Card object at 0x139cd7b50>]",0,24,24,49,1,True,1,True,1.9728787101339549,correct,JW,24,2023-07-27_12h39.32.055,Standard,
"[<set_utils.cards.Card object at 0x139cd7b50>, <set_utils.cards.Card object at 0x139cd7b80>, <set_utils.cards.Card object at 0x139cd7b50>]",0,25,25,6,1,False,,False,1.2107970349024981,correct,JW,24,2023-07-27_12h39.32.055,Standard,
"[<set_utils.cards.Card object at 0x139cd7cd0>, <set_utils.cards.Card object at 0x139cd7b80>, <set_utils.cards.Card object at 0x139cd7b50>]",0,26,26,14,1,True,1,True,1.591439340962097,correct,JW,24,2023-07-27_12h39.32.055,Standard,
"[<set_utils.cards.Card object at 0x139cd7b50>, <set_utils.cards.Card object at 0x139cd7cd0>, <set_utils.cards.Card object at 0x139cd7b80>]",0,27,27,27,1,True,1,True,1.378147155046463,correct,JW,24,2023-07-27_12h39.32.055,Standard,
"[<set_utils.cards.Card object at 0x139cd7b50>, <set_utils.cards.Card object at 0x139cd7cd0>, <set_utils.cards.Card object at 0x139cd7b80>]",0,28,28,45,1,True,1,True,1.608260998968035,correct,JW,24,2023-07-27_12h39.32.055,Standard,
"[<set_utils.cards.Card object at 0x139cd7cd0>, <set_utils.cards.Card object at 0x139cd7b80>, <set_utils.cards.Card object at 0x139cd7b50>]",0,29,29,39,1,True,1,True,1.6237828291486949,correct,JW,24,2023-07-27_12h39.32.055,Standard,
"[<set_utils.cards.Card object at 0x139cd7cd0>, <set_utils.cards.Card object at 0x139cd7b80>, <set_utils.cards.Card object at 0x139cd7b50>]",0,30,30,2,1,True,1,True,1.0730072159785777,correct,JW,24,2023-07-27_12h39.32.055,Standard,
"[<set_utils.cards.Card object at 0x139cd7b80>, <set_utils.cards.Card object at 0x139cd7cd0>, <set_utils.cards.Card object at 0x139cd7b80>]",0,31,31,13,1,False,,False,1.6450416939333081,correct,JW,24,2023-07-27_12h39.32.055,Standard,
"[<set_utils.cards.Card object at 0x139cd7cd0>, <set_utils.cards.Card object at 0x139cd7cd0>, <set_utils.cards.Card object at 0x139cd7cd0>]",0,32,32,35,1,True,0,True,1.0060771801508963,correct,JW,24,2023-07-27_12h39.32.055,Standard,
"[<set_utils.cards.Card object at 0x139cd7b80>, <set_utils.cards.Card object at 0x139cd7cd0>, <set_utils.cards.Card object at 0x139cd7b50>]",0,33,33,12,1,True,1,True,2.5828479521442205,correct,JW,24,2023-07-27_12h39.32.055,Standard,
"[<set_utils.cards.Card object at 0x139cd7b80>, <set_utils.cards.Card object at 0x139cd7cd0>, <set_utils.cards.Card object at 0x139cd7cd0>]",0,34,34,37,1,False,,False,1.2103368691168725,correct,JW,24,2023-07-27_12h39.32.055,Standard,
"[<set_utils.cards.Card object at 0x139cd7b50>, <set_utils.cards.Card object at 0x139cd7cd0>, <set_utils.cards.Card object at 0x139cd7b50>]",0,35,35,10,1,False,,False,1.7460577788297087,correct,JW,24,2023-07-27_12h39.32.055,Standard,
"[<set_utils.cards.Card object at 0x139cd7b50>, <set_utils.cards.Card object at 0x139cd7b50>, <set_utils.cards.Card object at 0x139cd7b50>]",0,36,36,31,1,True,0,True,0.8952545099891722,correct,JW,24,2023-07-27_12h39.32.055,Standard,
"[<set_utils.cards.Card object at 0x139cd7b80>, <set_utils.cards.Card object at 0x139cd7cd0>, <set_utils.cards.Card object at 0x139cd7cd0>]",0,37,37,5,1,False,,False,1.2333765840157866,correct,JW,24,2023-07-27_12h39.32.055,Standard,
"[<set_utils.cards.Card object at 0x139cd7b80>, <set_utils.cards.Card object at 0x139cd7cd0>, <set_utils.cards.Card object at 0x139cd7cd0>]",0,38,38,25,1,False,,False,1.0815199359785765,correct,JW,24,2023-07-27_12h39.32.055,Standard,
"[<set_utils.cards.Card object at 0x139cd7cd0>, <set_utils.cards.Card object at 0x139cd7b50>, <set_utils.cards.Card object at 0x139cd7b80>]",0,39,39,19,1,True,1,True,1.2264737500809133,correct,JW,24,2023-07-27_12h39.32.055,Standard,
"[<set_utils.cards.Card object at 0x139cd7cd0>, <set_utils.cards.Card object at 0x139cd7b50>, <set_utils.cards.Card object at 0x139cd7cd0>]",0,40,40,29,1,False,,False,1.407571119023487,correct,JW,24,2023-07-27_12h39.32.055,Standard,
"[<set_utils.cards.Card object at 0x139cd7b50>, <set_utils.cards.Card object at 0x139cd7b50>, <set_utils.cards.Card object at 0x139cd7b50>]",0,41,41,23,1,True,0,True,0.9211796580348164,correct,JW,24,2023-07-27_12h39.32.055,Standard,
"[<set_utils.cards.Card object at 0x139cd7b50>, <set_utils.cards.Card object at 0x139cd7b50>, <set_utils.cards.Card object at 0x139cd7b80>]",0,42,42,15,1,False,,False,1.6048966059461236,correct,JW,24,2023-07-27_12h39.32.055,Standard,
"[<set_utils.cards.Card object at 0x139cd7cd0>, <set_utils.cards.Card object at 0x139cd7cd0>, <set_utils.cards.Card object at 0x139cd7b80>]",0,43,43,32,1,False,,True,1.3757578930817544,incorrect,JW,24,2023-07-27_12h39.32.055,Standard,
"[<set_utils.cards.Card object at 0x139cd7b80>, <set_utils.cards.Card object at 0x139cd7cd0>, <set_utils.cards.Card object at 0x139cd7b80>]",0,44,44,48,1,False,,False,1.5998183840420097,correct,JW,24,2023-07-27_12h39.32.055,Standard,
"[<set_utils.cards.Card object at 0x139cd7cd0>, <set_utils.cards.Card object at 0x139cd7cd0>, <set_utils.cards.Card object at 0x139cd7b50>]",0,45,45,44,1,False,,False,1.6714106409344822,correct,JW,24,2023-07-27_12h39.32.055,Standard,
"[<set_utils.cards.Card object at 0x139cd7cd0>, <set_utils.cards.Card object at 0x139cd7b80>, <set_utils.cards.Card object at 0x139cd7b50>]",0,46,46,3,1,True,1,True,1.1495017078705132,correct,JW,24,2023-07-27_12h39.32.055,Standard,
"[<set_utils.cards.Card object at 0x139cd7cd0>, <set_utils.cards.Card object at 0x139cd7b80>, <set_utils.cards.Card object at 0x139cd7b80>]",0,47,47,20,1,False,,False,1.3263357940595597,correct,JW,24,2023-07-27_12h39.32.055,Standard,
"[<set_utils.cards.Card object at 0x139cd7cd0>, <set_utils.cards.Card object at 0x139cd7cd0>, <set_utils.cards.Card object at 0x139cd7cd0>]",0,48,48,18,1,True,0,True,1.00390789587982,correct,JW,24,2023-07-27_12h39.32.055,Standard,
"[<set_utils.cards.Card object at 0x139cd7b80>, <set_utils.cards.Card object at 0x139cd7b80>, <set_utils.cards.Card object at 0x139cd7cd0>]",0,49,49,41,1,False,,False,1.0520694840233773,correct,JW,24,2023-07-27_12h39.32.055,Standard,
"[<set_utils.cards.Card object at 0x139cd7eb0>, <set_utils.cards.Card object at 0x139cd7df0>, <set_utils.cards.Card object at 0x139cd7f10>]",0,0,0,16,2,False,,False,4.6152469189837575,correct,JW,24,2023-07-27_12h39.32.055,Standard,
"[<set_utils.cards.Card object at 0x139cd7d30>, <set_utils.cards.Card object at 0x139cd7f10>, <set_utils.cards.Card object at 0x139cd7d90>]",0,1,1,11,2,False,,False,3.243788444902748,correct,JW,24,2023-07-27_12h39.32.055,Standard,
"[<set_utils.cards.Card object at 0x139cd7e50>, <set_utils.cards.Card object at 0x139cd7f10>, <set_utils.cards.Card object at 0x139cd7df0>]",0,2,2,48,2,False,,False,1.1816651560366154,correct,JW,24,2023-07-27_12h39.32.055,Standard,
"[<set_utils.cards.Card object at 0x139cd7d90>, <set_utils.cards.Card object at 0x139cd7b80>, <set_utils.cards.Card object at 0x139cd7cd0>]",0,3,3,32,2,False,,False,1.4465411670971662,correct,JW,24,2023-07-27_12h39.32.055,Standard,
"[<set_utils.cards.Card object at 0x139cd7f10>, <set_utils.cards.Card object at 0x139cd7eb0>, <set_utils.cards.Card object at 0x139cd7df0>]",0,4,4,44,2,False,,False,3.104144066106528,correct,JW,24,2023-07-27_12h39.32.055,Standard,
"[<set_utils.cards.Card object at 0x139cd7eb0>, <set_utils.cards.Card object at 0x139cd7d30>, <set_utils.cards.Card object at 0x139cd7e50>]",0,5,5,21,2,False,,False,2.5537516409531236,correct,JW,24,2023-07-27_12h39.32.055,Standard,
"[<set_utils.cards.Card object at 0x139cd7df0>, <set_utils.cards.Card object at 0x139cd7cd0>, <set_utils.cards.Card object at 0x139cd7e50>]",0,6,6,43,2,False,,True,1.4754625500645489,incorrect,JW,24,2023-07-27_12h39.32.055,Standard,
"[<set_utils.cards.Card object at 0x139cd7d90>, <set_utils.cards.Card object at 0x139cd7cd0>, <set_utils.cards.Card object at 0x139cd7e50>]",0,7,7,0,2,True,2,True,3.538433887064457,correct,JW,24,2023-07-27_12h39.32.055,Standard,
"[<set_utils.cards.Card object at 0x139cd7d30>, <set_utils.cards.Card object at 0x139cd7df0>, <set_utils.cards.Card object at 0x139cd7f10>]",0,8,8,27,2,False,,False,2.315782566089183,correct,JW,24,2023-07-27_12h39.32.055,Standard,
"[<set_utils.cards.Card object at 0x139cd7e50>, <set_utils.cards.Card object at 0x139cd7cd0>, <set_utils.cards.Card object at 0x139cd7d90>]",0,9,9,20,2,True,2,True,2.5209829180967063,correct,JW,24,2023-07-27_12h39.32.055,Standard,
"[<set_utils.cards.Card object at 0x139cd7d90>, <set_utils.cards.Card object at 0x139cd7df0>, <set_utils.cards.Card object at 0x139cd7cd0>]",0,10,10,25,2,False,,False,1.697329733055085,correct,JW,24,2023-07-27_12h39.32.055,Standard,
"[<set_utils.cards.Card object at 0x139cd7df0>, <set_utils.cards.Card object at 0x139cd7b50>, <set_utils.cards.Card object at 0x139cd7eb0>]",0,11,11,37,2,False,,False,2.400889608077705,correct,JW,24,2023-07-27_12h39.32.055,Standard,
"[<set_utils.cards.Card object at 0x139cd7cd0>, <set_utils.cards.Card object at 0x139cd7e50>, <set_utils.cards.Card object at 0x139cd7d90>]",0,12,12,28,2,True,2,True,2.3405563589185476,correct,JW,24,2023-07-27_12h39.32.055,Standard,
"[<set_utils.cards.Card object at 0x139cd7e50>, <set_utils.cards.Card object at 0x139cd7f10>, <set_utils.cards.Card object at 0x139cd7eb0>]",0,13,13,10,2,True,1,True,3.4740412349347025,correct,JW,24,2023-07-27_12h39.32.055,Standard,
"[<set_utils.cards.Card object at 0x139cd7e50>, <set_utils.cards.Card object at 0x139cd7b80>, <set_utils.cards.Card object at 0x139cd7b50>]",0,14,14,34,2,False,,False,2.063104039989412,correct,JW,24,2023-07-27_12h39.32.055,Standard,
"[<set_utils.cards.Card object at 0x139cd7e50>, <set_utils.cards.Card object at 0x139cd7b50>, <set_utils.cards.Card object at 0x139cd7df0>]",0,15,15,8,2,True,2,True,2.670241849962622,correct,JW,24,2023-07-27_12h39.32.055,Standard,
"[<set_utils.cards.Card object at 0x139cd7b80>, <set_utils.cards.Card object at 0x139cd7cd0>, <set_utils.cards.Card object at 0x139cd7b50>]",0,16,16,36,2,True,1,True,2.3210574358236045,correct,JW,24,2023-07-27_12h39.32.055,Standard,
"[<set_utils.cards.Card object at 0x139cd7d30>, <set_utils.cards.Card object at 0x139cd7eb0>, <set_utils.cards.Card object at 0x139cd7cd0>]",0,17,17,18,2,True,2,True,3.862557429820299,correct,JW,24,2023-07-27_12h39.32.055,Standard,
"[<set_utils.cards.Card object at 0x139cd7cd0>, <set_utils.cards.Card object at 0x139cd7b50>, <set_utils.cards.Card object at 0x139cd7d30>]",0,18,18,13,2,False,,True,2.8971539998892695,incorrect,JW,24,2023-07-27_12h39.32.055,Standard,
"[<set_utils.cards.Card object at 0x139cd7d90>, <set_utils.cards.Card object at 0x139cd7df0>, <set_utils.cards.Card object at 0x139cd7d30>]",0,19,19,24,2,True,1,True,2.447331022936851,correct,JW,24,2023-07-27_12h39.32.055,Standard,
"[<set_utils.cards.Card object at 0x139cd7e50>, <set_utils.cards.Card object at 0x139cd7d90>, <set_utils.cards.Card object at 0x139cd7cd0>]",0,20,20,49,2,True,2,True,4.8723989189602435,correct,JW,24,2023-07-27_12h39.32.055,Standard,
"[<set_utils.cards.Card object at 0x139cd7df0>, <set_utils.cards.Card object at 0x139cd7b80>, <set_utils.cards.Card object at 0x139cd7f10>]",0,21,21,1,2,False,,False,1.4925135949160904,correct,JW,24,2023-07-27_12h39.32.055,Standard,
"[<set_utils.cards.Card object at 0x139cd7e50>, <set_utils.cards.Card object at 0x139cd7d30>, <set_utils.cards.Card object at 0x139cd7b80>]",0,22,22,4,2,True,1,True,4.242153910920024,correct,JW,24,2023-07-27_12h39.32.055,Standard,
"[<set_utils.cards.Card object at 0x139cd7cd0>, <set_utils.cards.Card object at 0x139cd7e50>, <set_utils.cards.Card object at 0x139cd7d90>]",0,23,23,7,2,True,2,True,3.2379444839898497,correct,JW,24,2023-07-27_12h39.32.055,Standard,
"[<set_utils.cards.Card object at 0x139cd7e50>, <set_utils.cards.Card object at 0x139cd7f10>, <set_utils.cards.Card object at 0x139cd7d90>]",0,24,24,42,2,False,,False,4.050848708953708,correct,JW,24,2023-07-27_12h39.32.055,Standard,
"[<set_utils.cards.Card object at 0x139cd7df0>, <set_utils.cards.Card object at 0x139cd7cd0>, <set_utils.cards.Card object at 0x139cd7eb0>]",0,25,25,19,2,False,,False,3.3125286290887743,correct,JW,24,2023-07-27_12h39.32.055,Standard,
"[<set_utils.cards.Card object at 0x139cd7d30>, <set_utils.cards.Card object at 0x139cd7e50>, <set_utils.cards.Card object at 0x139cd7b80>]",0,26,26,40,2,True,1,True,1.6662630902137607,correct,JW,24,2023-07-27_12h39.32.055,Standard,
"[<set_utils.cards.Card object at 0x139cd7df0>, <set_utils.cards.Card object at 0x139cd7e50>, <set_utils.cards.Card object at 0x139cd7eb0>]",0,27,27,45,2,False,,False,1.4466840790119022,correct,JW,24,2023-07-27_12h39.32.055,Standard,
"[<set_utils.cards.Card object at 0x139cd7b50>, <set_utils.cards.Card object at 0x139cd7cd0>, <set_utils.cards.Card object at 0x139cd7b80>]",0,28,28,12,2,True,1,True,1.2988645168952644,correct,JW,24,2023-07-27_12h39.32.055,Standard,
"[<set_utils.cards.Card object at 0x139cd7d90>, <set_utils.cards.Card object at 0x139cd7b50>, <set_utils.cards.Card object at 0x139cd7eb0>]",0,29,29,22,2,True,1,True,3.134384260047227,correct,JW,24,2023-07-27_12h39.32.055,Standard,
"[<set_utils.cards.Card object at 0x139cd7eb0>, <set_utils.cards.Card object at 0x139cd7cd0>, <set_utils.cards.Card object at 0x139cd7d30>]",0,30,30,17,2,True,2,True,2.396928614936769,correct,JW,24,2023-07-27_12h39.32.055,Standard,
"[<set_utils.cards.Card object at 0x139cd7d30>, <set_utils.cards.Card object at 0x139cd7f10>, <set_utils.cards.Card object at 0x139cd7d90>]",0,31,31,31,2,False,,False,1.4490468329750001,correct,JW,24,2023-07-27_12h39.32.055,Standard,
"[<set_utils.cards.Card object at 0x139cd7df0>, <set_utils.cards.Card object at 0x139cd7eb0>, <set_utils.cards.Card object at 0x139cd7e50>]",0,32,32,15,2,False,,False,1.1600120388902724,correct,JW,24,2023-07-27_12h39.32.055,Standard,
"[<set_utils.cards.Card object at 0x139cd7d90>, <set_utils.cards.Card object at 0x139cd7b50>, <set_utils.cards.Card object at 0x139cd7b80>]",0,33,33,5,2,False,,False,1.8988601791206747,correct,JW,24,2023-07-27_12h39.32.055,Standard,
"[<set_utils.cards.Card object at 0x139cd7b50>, <set_utils.cards.Card object at 0x139cd7d30>, <set_utils.cards.Card object at 0x139cd7f10>]",0,34,34,35,2,True,2,True,1.638674374902621,correct,JW,24,2023-07-27_12h39.32.055,Standard,
"[<set_utils.cards.Card object at 0x139cd7d90>, <set_utils.cards.Card object at 0x139cd7cd0>, <set_utils.cards.Card object at 0x139cd7df0>]",0,35,35,41,2,False,,False,1.5324665028601885,correct,JW,24,2023-07-27_12h39.32.055,Standard,
"[<set_utils.cards.Card object at 0x139cd7df0>, <set_utils.cards.Card object at 0x139cd7b50>, <set_utils.cards.Card object at 0x139cd7d90>]",0,36,36,46,2,False,,False,1.7506560038309544,correct,JW,24,2023-07-27_12h39.32.055,Standard,
"[<set_utils.cards.Card object at 0x139cd7eb0>, <set_utils.cards.Card object at 0x139cd7b80>, <set_utils.cards.Card object at 0x139cd7df0>]",0,37,37,47,2,True,2,True,1.3936214079149067,correct,JW,24,2023-07-27_12h39.32.055,Standard,
"[<set_utils.cards.Card object at 0x139cd7b80>, <set_utils.cards.Card object at 0x139cd7d30>, <set_utils.cards.Card object at 0x139cd7df0>]",0,38,38,39,2,False,,False,0.9203593079000711,correct,JW,24,2023-07-27_12h39.32.055,Standard,
"[<set_utils.cards.Card object at 0x139cd7b50>, <set_utils.cards.Card object at 0x139cd7f10>, <set_utils.cards.Card object at 0x139cd7d90>]",0,39,39,23,2,False,,False,1.4445184159558266,correct,JW,24,2023-07-27_12h39.32.055,Standard,
"[<set_utils.cards.Card object at 0x139cd7b80>, <set_utils.cards.Card object at 0x139cd7d90>, <set_utils.cards.Card object at 0x139cd7f10>]",0,40,40,26,2,True,2,True,1.8943525459617376,correct,JW,24,2023-07-27_12h39.32.055,Standard,
"[<set_utils.cards.Card object at 0x139cd7df0>, <set_utils.cards.Card object at 0x139cd7eb0>, <set_utils.cards.Card object at 0x139cd7b50>]",0,41,41,33,2,False,,False,1.9108766759745777,correct,JW,24,2023-07-27_12h39.32.055,Standard,
"[<set_utils.cards.Card object at 0x139cd7cd0>, <set_utils.cards.Card object at 0x139cd7b50>, <set_utils.cards.Card object at 0x139cd7b80>]",0,42,42,38,2,True,1,True,2.0873619550839067,correct,JW,24,2023-07-27_12h39.32.055,Standard,
"[<set_utils.cards.Card object at 0x139cd7df0>, <set_utils.cards.Card object at 0x139cd7eb0>, <set_utils.cards.Card object at 0x139cd7e50>]",0,43,43,14,2,False,,False,2.5900522801093757,correct,JW,24,2023-07-27_12h39.32.055,Standard,
"[<set_utils.cards.Card object at 0x139cd7eb0>, <set_utils.cards.Card object at 0x139cd7df0>, <set_utils.cards.Card object at 0x139cd7b80>]",0,44,44,9,2,True,2,True,2.8772692610509694,correct,JW,24,2023-07-27_12h39.32.055,Standard,
"[<set_utils.cards.Card object at 0x139cd7df0>, <set_utils.cards.Card object at 0x139cd7b50>, <set_utils.cards.Card object at 0x139cd7e50>]",0,45,45,3,2,True,2,True,3.579072924098,correct,JW,24,2023-07-27_12h39.32.055,Standard,
"[<set_utils.cards.Card object at 0x139cd7e50>, <set_utils.cards.Card object at 0x139cd7eb0>, <set_utils.cards.Card object at 0x139cd7f10>]",0,46,46,29,2,True,1,True,1.585582152940333,correct,JW,24,2023-07-27_12h39.32.055,Standard,
"[<set_utils.cards.Card object at 0x139cd7b80>, <set_utils.cards.Card object at 0x139cd7f10>, <set_utils.cards.Card object at 0x139cd7d90>]",0,47,47,30,2,True,2,True,2.158707305090502,correct,JW,24,2023-07-27_12h39.32.055,Standard,
"[<set_utils.cards.Card object at 0x139cd7b50>, <set_utils.cards.Card object at 0x139cd7d30>, <set_utils.cards.Card object at 0x139cd7f10>]",0,48,48,2,2,True,2,True,1.683923402801156,correct,JW,24,2023-07-27_12h39.32.055,Standard,
"[<set_utils.cards.Card object at 0x139cd7d30>, <set_utils.cards.Card object at 0x139cd7df0>, <set_utils.cards.Card object at 0x139cd7d90>]",0,49,49,6,2,True,1,True,2.328836537199095,correct,JW,24,2023-07-27_12h39.32.055,Standard,
"[<set_utils.cards.Card object at 0x139cdd130>, <set_utils.cards.Card object at 0x139cd7d90>, <set_utils.cards.Card object at 0x139cdd490>]",0,0,0,47,3,True,1,True,2.5375055889599025,correct,JW,24,2023-07-27_12h39.32.055,Standard,
"[<set_utils.cards.Card object at 0x139cd7df0>, <set_utils.cards.Card object at 0x139cdd430>, <set_utils.cards.Card object at 0x139cdd130>]",0,1,1,28,3,True,2,True,1.4792414400726557,correct,JW,24,2023-07-27_12h39.32.055,Standard,
"[<set_utils.cards.Card object at 0x139cdd2b0>, <set_utils.cards.Card object at 0x139cdd130>, <set_utils.cards.Card object at 0x139cd7f70>]",0,2,2,31,3,True,2,True,2.2697370108217,correct,JW,24,2023-07-27_12h39.32.055,Standard,
"[<set_utils.cards.Card object at 0x139cdd250>, <set_utils.cards.Card object at 0x139cdd370>, <set_utils.cards.Card object at 0x139cd7d30>]",0,3,3,41,3,False,,True,1.2989102210849524,incorrect,JW,24,2023-07-27_12h39.32.055,Standard,
"[<set_utils.cards.Card object at 0x139cdd190>, <set_utils.cards.Card object at 0x139cdd550>, <set_utils.cards.Card object at 0x139cdd310>]",0,4,4,27,3,False,,False,1.4667827859520912,correct,JW,24,2023-07-27_12h39.32.055,Standard,
"[<set_utils.cards.Card object at 0x139cdd250>, <set_utils.cards.Card object at 0x139cdd550>, <set_utils.cards.Card object at 0x139cd7f70>]",0,5,5,13,3,False,,False,4.645975190913305,correct,JW,24,2023-07-27_12h39.32.055,Standard,
"[<set_utils.cards.Card object at 0x139cd7e50>, <set_utils.cards.Card object at 0x139cdd2b0>, <set_utils.cards.Card object at 0x139cd7d90>]",0,6,6,1,3,False,,True,3.1437245251145214,incorrect,JW,24,2023-07-27_12h39.32.055,Standard,
"[<set_utils.cards.Card object at 0x139cdd310>, <set_utils.cards.Card object at 0x139cd7eb0>, <set_utils.cards.Card object at 0x139cdd190>]",0,7,7,19,3,True,3,True,6.000930381938815,correct,JW,24,2023-07-27_12h39.32.055,Standard,
"[<set_utils.cards.Card object at 0x139cd7f10>, <set_utils.cards.Card object at 0x139cdd5b0>, <set_utils.cards.Card object at 0x139cd7cd0>]",0,8,8,0,3,False,,False,7.520790402079001,correct,JW,24,2023-07-27_12h39.32.055,Standard,
"[<set_utils.cards.Card object at 0x139cdd610>, <set_utils.cards.Card object at 0x139cd7d30>, <set_utils.cards.Card object at 0x139cdd0d0>]",0,9,9,14,3,False,,Missed,,omission,JW,24,2023-07-27_12h39.32.055,Standard,
"[<set_utils.cards.Card object at 0x139cdd2b0>, <set_utils.cards.Card object at 0x139cd7b50>, <set_utils.cards.Card object at 0x139cdd430>]",0,10,10,6,3,True,3,True,1.988055506022647,correct,JW,24,2023-07-27_12h39.32.055,Standard,
"[<set_utils.cards.Card object at 0x139cd7d30>, <set_utils.cards.Card object at 0x139cdd490>, <set_utils.cards.Card object at 0x139cdd190>]",0,11,11,35,3,True,2,True,1.7242023379076272,correct,JW,24,2023-07-27_12h39.32.055,Standard,
"[<set_utils.cards.Card object at 0x139cd7b50>, <set_utils.cards.Card object at 0x139cdd3d0>, <set_utils.cards.Card object at 0x139cdd0d0>]",0,12,12,11,3,False,,True,2.2619334110058844,incorrect,JW,24,2023-07-27_12h39.32.055,Standard,
"[<set_utils.cards.Card object at 0x139cdd610>, <set_utils.cards.Card object at 0x139cdd2b0>, <set_utils.cards.Card object at 0x139cd7f10>]",0,13,13,32,3,True,1,True,2.1450486599933356,correct,JW,24,2023-07-27_12h39.32.055,Standard,
"[<set_utils.cards.Card object at 0x139cdd2b0>, <set_utils.cards.Card object at 0x139cdd3d0>, <set_utils.cards.Card object at 0x139cd7e50>]",0,14,14,16,3,False,,False,2.5350899039767683,correct,JW,24,2023-07-27_12h39.32.055,Standard,
"[<set_utils.cards.Card object at 0x139cd7e50>, <set_utils.cards.Card object at 0x139cdd310>, <set_utils.cards.Card object at 0x139cdd0d0>]",0,15,15,43,3,True,2,True,2.7209291530307382,correct,JW,24,2023-07-27_12h39.32.055,Standard,
"[<set_utils.cards.Card object at 0x139cdd610>, <set_utils.cards.Card object at 0x139cdd0d0>, <set_utils.cards.Card object at 0x139cd7d30>]",0,16,16,29,3,False,,False,1.5977636529132724,correct,JW,24,2023-07-27_12h39.32.055,Standard,
"[<set_utils.cards.Card object at 0x139cd7eb0>, <set_utils.cards.Card object at 0x139cdd430>, <set_utils.cards.Card object at 0x139cd7b80>]",0,17,17,5,3,False,,False,1.4705641090404242,correct,JW,24,2023-07-27_12h39.32.055,Standard,
"[<set_utils.cards.Card object at 0x139cdd130>, <set_utils.cards.Card object at 0x139cdd2b0>, <set_utils.cards.Card object at 0x139cd7f70>]",0,18,18,15,3,True,2,True,3.046507203951478,correct,JW,24,2023-07-27_12h39.32.055,Standard,
"[<set_utils.cards.Card object at 0x139cd7e50>, <set_utils.cards.Card object at 0x139cd7f70>, <set_utils.cards.Card object at 0x139cdd430>]",0,19,19,26,3,True,2,False,1.5081442878581583,incorrect,JW,24,2023-07-27_12h39.32.055,Standard,
"[<set_utils.cards.Card object at 0x139cdd2b0>, <set_utils.cards.Card object at 0x139cd7e50>, <set_utils.cards.Card object at 0x139cdd3d0>]",0,20,20,30,3,False,,False,5.02801234414801,correct,JW,24,2023-07-27_12h39.32.055,Standard,
"[<set_utils.cards.Card object at 0x139cdd370>, <set_utils.cards.Card object at 0x139cdd130>, <set_utils.cards.Card object at 0x139cd7eb0>]",0,21,21,2,3,True,2,True,1.8146317270584404,correct,JW,24,2023-07-27_12h39.32.055,Standard,
"[<set_utils.cards.Card object at 0x139cd7f10>, <set_utils.cards.Card object at 0x139cd7d30>, <set_utils.cards.Card object at 0x139cd7b50>]",0,22,22,33,3,True,2,True,2.890356373041868,correct,JW,24,2023-07-27_12h39.32.055,Standard,
"[<set_utils.cards.Card object at 0x139cdd4f0>, <set_utils.cards.Card object at 0x139cd7d90>, <set_utils.cards.Card object at 0x139cdd0d0>]",0,23,23,49,3,True,2,True,2.4634622880257666,correct,JW,24,2023-07-27_12h39.32.055,Standard,
"[<set_utils.cards.Card object at 0x139cd7df0>, <set_utils.cards.Card object at 0x139cdd130>, <set_utils.cards.Card object at 0x139cdd430>]",0,24,24,38,3,True,2,True,2.1468908439856023,correct,JW,24,2023-07-27_12h39.32.055,Standard,
"[<set_utils.cards.Card object at 0x139cd7df0>, <set_utils.cards.Card object at 0x139cdd310>, <set_utils.cards.Card object at 0x139cdd250>]",0,25,25,45,3,True,3,True,2.474174340022728,correct,JW,24,2023-07-27_12h39.32.055,Standard,
"[<set_utils.cards.Card object at 0x139cdd5b0>, <set_utils.cards.Card object at 0x139cd7fd0>, <set_utils.cards.Card object at 0x139cdd430>]",0,26,26,40,3,False,,True,5.146891689160839,incorrect,JW,24,2023-07-27_12h39.32.055,Standard,
"[<set_utils.cards.Card object at 0x139cd7fd0>, <set_utils.cards.Card object at 0x139cd7e50>, <set_utils.cards.Card object at 0x139cdd4f0>]",0,27,27,7,3,True,3,True,4.679276258917525,correct,JW,24,2023-07-27_12h39.32.055,Standard,
"[<set_utils.cards.Card object at 0x139cd7b80>, <set_utils.cards.Card object at 0x139cdd190>, <set_utils.cards.Card object at 0x139cd7f70>]",0,28,28,4,3,False,,False,1.2350461010355502,correct,JW,24,2023-07-27_12h39.32.055,Standard,
"[<set_utils.cards.Card object at 0x139cd7cd0>, <set_utils.cards.Card object at 0x139cd7fd0>, <set_utils.cards.Card object at 0x139cdd310>]",0,29,29,23,3,True,2,True,6.545594258001074,correct,JW,24,2023-07-27_12h39.32.055,Standard,
"[<set_utils.cards.Card object at 0x139cdd190>, <set_utils.cards.Card object at 0x139cdd430>, <set_utils.cards.Card object at 0x139cdd070>]",0,30,30,10,3,False,,False,1.2689751868601888,correct,JW,24,2023-07-27_12h39.32.055,Standard,
"[<set_utils.cards.Card object at 0x139cd7f70>, <set_utils.cards.Card object at 0x139cd7f10>, <set_utils.cards.Card object at 0x139cdd490>]",0,31,31,34,3,True,3,True,3.2931824738625437,correct,JW,24,2023-07-27_12h39.32.055,Standard,
"[<set_utils.cards.Card object at 0x139cdd0d0>, <set_utils.cards.Card object at 0x139cdd5b0>, <set_utils.cards.Card object at 0x139cdd1f0>]",0,32,32,20,3,False,,False,2.107060336973518,correct,JW,24,2023-07-27_12h39.32.055,Standard,
"[<set_utils.cards.Card object at 0x139cd7b50>, <set_utils.cards.Card object at 0x139cd7f10>, <set_utils.cards.Card object at 0x139cd7d30>]",0,33,33,9,3,True,2,True,3.0735880811698735,correct,JW,24,2023-07-27_12h39.32.055,Standard,
"[<set_utils.cards.Card object at 0x139cdd310>, <set_utils.cards.Card object at 0x139cd7df0>, <set_utils.cards.Card object at 0x139cd7eb0>]",0,34,34,22,3,False,,True,3.2243941149208695,incorrect,JW,24,2023-07-27_12h39.32.055,Standard,
"[<set_utils.cards.Card object at 0x139cdd4f0>, <set_utils.cards.Card object at 0x139cd7b80>, <set_utils.cards.Card object at 0x139cd7fd0>]",0,35,35,42,3,False,,False,6.797766440082341,correct,JW,24,2023-07-27_12h39.32.055,Standard,
"[<set_utils.cards.Card object at 0x139cd7f70>, <set_utils.cards.Card object at 0x139cdd070>, <set_utils.cards.Card object at 0x139cd7d30>]",0,36,36,44,3,False,,False,4.537385681178421,correct,JW,24,2023-07-27_12h39.32.055,Standard,
"[<set_utils.cards.Card object at 0x139cdd610>, <set_utils.cards.Card object at 0x139cd7b80>, <set_utils.cards.Card object at 0x139cdd130>]",0,37,37,24,3,True,3,True,2.366567774908617,correct,JW,24,2023-07-27_12h39.32.055,Standard,
"[<set_utils.cards.Card object at 0x139cdd2b0>, <set_utils.cards.Card object at 0x139cd7b50>, <set_utils.cards.Card object at 0x139cdd430>]",0,38,38,46,3,True,3,True,2.8078919688705355,correct,JW,24,2023-07-27_12h39.32.055,Standard,
"[<set_utils.cards.Card object at 0x139cdd310>, <set_utils.cards.Card object at 0x139cdd2b0>, <set_utils.cards.Card object at 0x139cd7d90>]",0,39,39,12,3,True,3,True,3.776666142977774,correct,JW,24,2023-07-27_12h39.32.055,Standard,
"[<set_utils.cards.Card object at 0x139cdd190>, <set_utils.cards.Card object at 0x139cdd370>, <set_utils.cards.Card object at 0x139cdd430>]",0,40,40,18,3,False,,False,1.8029601199086756,correct,JW,24,2023-07-27_12h39.32.055,Standard,
"[<set_utils.cards.Card object at 0x139cd7f10>, <set_utils.cards.Card object at 0x139cdd430>, <set_utils.cards.Card object at 0x139cdd1f0>]",0,41,41,25,3,False,,False,3.4122351268306375,correct,JW,24,2023-07-27_12h39.32.055,Standard,
"[<set_utils.cards.Card object at 0x139cd7df0>, <set_utils.cards.Card object at 0x139cdd1f0>, <set_utils.cards.Card object at 0x139cdd370>]",0,42,42,37,3,True,3,True,3.8900823129806668,correct,JW,24,2023-07-27_12h39.32.055,Standard,
"[<set_utils.cards.Card object at 0x139cdd3d0>, <set_utils.cards.Card object at 0x139cd7b50>, <set_utils.cards.Card object at 0x139cd7d30>]",0,43,43,21,3,False,,False,2.9468730229418725,correct,JW,24,2023-07-27_12h39.32.055,Standard,
"[<set_utils.cards.Card object at 0x139cdd550>, <set_utils.cards.Card object at 0x139cd7df0>, <set_utils.cards.Card object at 0x139cd7b80>]",0,44,44,39,3,False,,True,6.206679000984877,incorrect,JW,24,2023-07-27_12h39.32.055,Standard,
"[<set_utils.cards.Card object at 0x139cdd2b0>, <set_utils.cards.Card object at 0x139cdd490>, <set_utils.cards.Card object at 0x139cd7d90>]",0,45,45,8,3,False,,False,1.8317177731078118,correct,JW,24,2023-07-27_12h39.32.055,Standard,
"[<set_utils.cards.Card object at 0x139cd7df0>, <set_utils.cards.Card object at 0x139cdd190>, <set_utils.cards.Card object at 0x139cdd4f0>]",0,46,46,3,3,True,1,True,1.687854595016688,correct,JW,24,2023-07-27_12h39.32.055,Standard,
"[<set_utils.cards.Card object at 0x139cdd5b0>, <set_utils.cards.Card object at 0x139cd7b80>, <set_utils.cards.Card object at 0x139cdd130>]",0,47,47,48,3,False,,True,5.538667593849823,incorrect,JW,24,2023-07-27_12h39.32.055,Standard,
"[<set_utils.cards.Card object at 0x139cdd2b0>, <set_utils.cards.Card object at 0x139cdd610>, <set_utils.cards.Card object at 0x139cd7f10>]",0,48,48,36,3,True,1,True,0.9243799431715161,correct,JW,24,2023-07-27_12h39.32.055,Standard,
"[<set_utils.cards.Card object at 0x139cdd190>, <set_utils.cards.Card object at 0x139cd7f10>, <set_utils.cards.Card object at 0x139cd7d90>]",0,49,49,17,3,False,,False,6.524522152962163,correct,JW,24,2023-07-27_12h39.32.055,Standard,
