hand,.thisRepN,.thisTrialN,.thisN,.thisIndex,block,correctResp,userResp,RT,evaluation,setLevel,subjectID,age,date,experiment_type,
"[<set_utils.cards.Card object at 0x1447faaf0>, <set_utils.cards.Card object at 0x1447fac70>, <set_utils.cards.Card object at 0x1447fac70>]",0,0,0,13,1,False,True,3.5353438039310277,incorrect,,sub,26VF,2023-07-25_13h42.25.244,Standard,
"[<set_utils.cards.Card object at 0x1447fac70>, <set_utils.cards.Card object at 0x1447faaf0>, <set_utils.cards.Card object at 0x1447fab20>]",0,1,1,15,1,True,True,4.782869711052626,correct,1,sub,26VF,2023-07-25_13h42.25.244,Standard,
"[<set_utils.cards.Card object at 0x1447fab20>, <set_utils.cards.Card object at 0x1447faaf0>, <set_utils.cards.Card object at 0x1447fac70>]",0,2,2,3,1,True,True,1.758834462845698,correct,1,sub,26VF,2023-07-25_13h42.25.244,Standard,
"[<set_utils.cards.Card object at 0x1447fab20>, <set_utils.cards.Card object at 0x1447fab20>, <set_utils.cards.Card object at 0x1447fac70>]",0,3,3,29,1,False,True,1.3391895489767194,incorrect,,sub,26VF,2023-07-25_13h42.25.244,Standard,
"[<set_utils.cards.Card object at 0x1447faaf0>, <set_utils.cards.Card object at 0x1447faaf0>, <set_utils.cards.Card object at 0x1447faaf0>]",0,4,4,31,1,True,True,1.4878342801239341,correct,0,sub,26VF,2023-07-25_13h42.25.244,Standard,
"[<set_utils.cards.Card object at 0x1447faaf0>, <set_utils.cards.Card object at 0x1447fac70>, <set_utils.cards.Card object at 0x1447faaf0>]",0,5,5,46,1,False,False,2.8511798020917922,correct,,sub,26VF,2023-07-25_13h42.25.244,Standard,
"[<set_utils.cards.Card object at 0x1447faaf0>, <set_utils.cards.Card object at 0x1447faaf0>, <set_utils.cards.Card object at 0x1447fac70>]",0,6,6,48,1,False,False,0.9015940797980875,correct,,sub,26VF,2023-07-25_13h42.25.244,Standard,
"[<set_utils.cards.Card object at 0x1447fac70>, <set_utils.cards.Card object at 0x1447fac70>, <set_utils.cards.Card object at 0x1447fac70>]",0,7,7,37,1,True,True,0.984410285949707,correct,0,sub,26VF,2023-07-25_13h42.25.244,Standard,
"[<set_utils.cards.Card object at 0x1447fac70>, <set_utils.cards.Card object at 0x1447fac70>, <set_utils.cards.Card object at 0x1447fac70>]",0,8,8,43,1,True,True,1.0299598309211433,correct,0,sub,26VF,2023-07-25_13h42.25.244,Standard,
"[<set_utils.cards.Card object at 0x1447fab20>, <set_utils.cards.Card object at 0x1447faaf0>, <set_utils.cards.Card object at 0x1447fab20>]",0,9,9,17,1,False,False,1.1987736520823091,correct,,sub,26VF,2023-07-25_13h42.25.244,Standard,
"[<set_utils.cards.Card object at 0x1447faaf0>, <set_utils.cards.Card object at 0x1447faaf0>, <set_utils.cards.Card object at 0x1447fac70>]",0,10,10,23,1,False,False,1.1557598521467298,correct,,sub,26VF,2023-07-25_13h42.25.244,Standard,
"[<set_utils.cards.Card object at 0x1447fab20>, <set_utils.cards.Card object at 0x1447fab20>, <set_utils.cards.Card object at 0x1447fac70>]",0,11,11,0,1,False,False,2.0550028530415148,correct,,sub,26VF,2023-07-25_13h42.25.244,Standard,
"[<set_utils.cards.Card object at 0x1447fab20>, <set_utils.cards.Card object at 0x1447faaf0>, <set_utils.cards.Card object at 0x1447fac70>]",0,12,12,25,1,True,True,1.346480217995122,correct,1,sub,26VF,2023-07-25_13h42.25.244,Standard,
"[<set_utils.cards.Card object at 0x1447fab20>, <set_utils.cards.Card object at 0x1447fab20>, <set_utils.cards.Card object at 0x1447faaf0>]",0,13,13,1,1,False,False,1.4455276657827199,correct,,sub,26VF,2023-07-25_13h42.25.244,Standard,
"[<set_utils.cards.Card object at 0x1447faaf0>, <set_utils.cards.Card object at 0x1447faaf0>, <set_utils.cards.Card object at 0x1447faaf0>]",0,14,14,27,1,True,True,0.7411856839898974,correct,0,sub,26VF,2023-07-25_13h42.25.244,Standard,
"[<set_utils.cards.Card object at 0x1447fab20>, <set_utils.cards.Card object at 0x1447faaf0>, <set_utils.cards.Card object at 0x1447fab20>]",0,15,15,47,1,False,False,1.0358145029749721,correct,,sub,26VF,2023-07-25_13h42.25.244,Standard,
"[<set_utils.cards.Card object at 0x1447fab20>, <set_utils.cards.Card object at 0x1447fac70>, <set_utils.cards.Card object at 0x1447faaf0>]",0,16,16,11,1,True,True,1.0955284738447517,correct,1,sub,26VF,2023-07-25_13h42.25.244,Standard,
"[<set_utils.cards.Card object at 0x1447faaf0>, <set_utils.cards.Card object at 0x1447faaf0>, <set_utils.cards.Card object at 0x1447faaf0>]",0,17,17,33,1,True,True,0.9552164431661367,correct,0,sub,26VF,2023-07-25_13h42.25.244,Standard,
"[<set_utils.cards.Card object at 0x1447fac70>, <set_utils.cards.Card object at 0x1447fab20>, <set_utils.cards.Card object at 0x1447faaf0>]",0,18,18,20,1,True,False,1.2269995629321784,incorrect,1,sub,26VF,2023-07-25_13h42.25.244,Standard,
"[<set_utils.cards.Card object at 0x1447fac70>, <set_utils.cards.Card object at 0x1447faaf0>, <set_utils.cards.Card object at 0x1447faaf0>]",0,19,19,4,1,False,False,1.0995614000130445,correct,,sub,26VF,2023-07-25_13h42.25.244,Standard,
"[<set_utils.cards.Card object at 0x1447fab20>, <set_utils.cards.Card object at 0x1447faaf0>, <set_utils.cards.Card object at 0x1447fab20>]",0,20,20,32,1,False,False,1.0410875140223652,correct,,sub,26VF,2023-07-25_13h42.25.244,Standard,
"[<set_utils.cards.Card object at 0x1447fac70>, <set_utils.cards.Card object at 0x1447fac70>, <set_utils.cards.Card object at 0x1447faaf0>]",0,21,21,14,1,False,False,1.924452592851594,correct,,sub,26VF,2023-07-25_13h42.25.244,Standard,
"[<set_utils.cards.Card object at 0x1447faaf0>, <set_utils.cards.Card object at 0x1447faaf0>, <set_utils.cards.Card object at 0x1447faaf0>]",0,22,22,34,1,True,True,0.8523165169171989,correct,0,sub,26VF,2023-07-25_13h42.25.244,Standard,
"[<set_utils.cards.Card object at 0x1447faaf0>, <set_utils.cards.Card object at 0x1447fab20>, <set_utils.cards.Card object at 0x1447fab20>]",0,23,23,22,1,False,False,0.841155539965257,correct,,sub,26VF,2023-07-25_13h42.25.244,Standard,
"[<set_utils.cards.Card object at 0x1447faaf0>, <set_utils.cards.Card object at 0x1447fac70>, <set_utils.cards.Card object at 0x1447faaf0>]",0,24,24,38,1,False,False,1.108901334926486,correct,,sub,26VF,2023-07-25_13h42.25.244,Standard,
"[<set_utils.cards.Card object at 0x1447faaf0>, <set_utils.cards.Card object at 0x1447faaf0>, <set_utils.cards.Card object at 0x1447faaf0>]",0,25,25,42,1,True,True,0.776028063846752,correct,0,sub,26VF,2023-07-25_13h42.25.244,Standard,
"[<set_utils.cards.Card object at 0x1447faaf0>, <set_utils.cards.Card object at 0x1447fac70>, <set_utils.cards.Card object at 0x1447fac70>]",0,26,26,49,1,False,False,0.90779476496391,correct,,sub,26VF,2023-07-25_13h42.25.244,Standard,
"[<set_utils.cards.Card object at 0x1447fab20>, <set_utils.cards.Card object at 0x1447fab20>, <set_utils.cards.Card object at 0x1447fac70>]",0,27,27,21,1,False,False,1.7205652389675379,correct,,sub,26VF,2023-07-25_13h42.25.244,Standard,
"[<set_utils.cards.Card object at 0x1447fab20>, <set_utils.cards.Card object at 0x1447fab20>, <set_utils.cards.Card object at 0x1447faaf0>]",0,28,28,30,1,False,False,0.903568509966135,correct,,sub,26VF,2023-07-25_13h42.25.244,Standard,
"[<set_utils.cards.Card object at 0x1447fab20>, <set_utils.cards.Card object at 0x1447faaf0>, <set_utils.cards.Card object at 0x1447fab20>]",0,29,29,6,1,False,False,0.9360552940052003,correct,,sub,26VF,2023-07-25_13h42.25.244,Standard,
"[<set_utils.cards.Card object at 0x1447fac70>, <set_utils.cards.Card object at 0x1447fac70>, <set_utils.cards.Card object at 0x1447fab20>]",0,30,30,24,1,False,False,1.0640114818233997,correct,,sub,26VF,2023-07-25_13h42.25.244,Standard,
"[<set_utils.cards.Card object at 0x1447fac70>, <set_utils.cards.Card object at 0x1447fab20>, <set_utils.cards.Card object at 0x1447faaf0>]",0,31,31,16,1,True,True,1.0169607780408114,correct,1,sub,26VF,2023-07-25_13h42.25.244,Standard,
"[<set_utils.cards.Card object at 0x1447fac70>, <set_utils.cards.Card object at 0x1447fab20>, <set_utils.cards.Card object at 0x1447faaf0>]",0,32,32,35,1,True,True,1.004719854099676,correct,1,sub,26VF,2023-07-25_13h42.25.244,Standard,
"[<set_utils.cards.Card object at 0x1447fac70>, <set_utils.cards.Card object at 0x1447fab20>, <set_utils.cards.Card object at 0x1447faaf0>]",0,33,33,10,1,True,True,0.9835928969550878,correct,1,sub,26VF,2023-07-25_13h42.25.244,Standard,
"[<set_utils.cards.Card object at 0x1447fac70>, <set_utils.cards.Card object at 0x1447fab20>, <set_utils.cards.Card object at 0x1447faaf0>]",0,34,34,39,1,True,True,0.9965957079548389,correct,1,sub,26VF,2023-07-25_13h42.25.244,Standard,
"[<set_utils.cards.Card object at 0x1447fab20>, <set_utils.cards.Card object at 0x1447fab20>, <set_utils.cards.Card object at 0x1447fab20>]",0,35,35,7,1,True,True,1.0258011410478503,correct,0,sub,26VF,2023-07-25_13h42.25.244,Standard,
"[<set_utils.cards.Card object at 0x1447fab20>, <set_utils.cards.Card object at 0x1447fab20>, <set_utils.cards.Card object at 0x1447fac70>]",0,36,36,45,1,False,False,0.7426618949975818,correct,,sub,26VF,2023-07-25_13h42.25.244,Standard,
"[<set_utils.cards.Card object at 0x1447faaf0>, <set_utils.cards.Card object at 0x1447faaf0>, <set_utils.cards.Card object at 0x1447fac70>]",0,37,37,9,1,False,False,0.7457566808443516,correct,,sub,26VF,2023-07-25_13h42.25.244,Standard,
"[<set_utils.cards.Card object at 0x1447fac70>, <set_utils.cards.Card object at 0x1447faaf0>, <set_utils.cards.Card object at 0x1447fab20>]",0,38,38,26,1,True,True,2.6267923219129443,correct,1,sub,26VF,2023-07-25_13h42.25.244,Standard,
"[<set_utils.cards.Card object at 0x1447faaf0>, <set_utils.cards.Card object at 0x1447fab20>, <set_utils.cards.Card object at 0x1447faaf0>]",0,39,39,36,1,False,False,1.2424484540242702,correct,,sub,26VF,2023-07-25_13h42.25.244,Standard,
"[<set_utils.cards.Card object at 0x1447fac70>, <set_utils.cards.Card object at 0x1447faaf0>, <set_utils.cards.Card object at 0x1447fab20>]",0,40,40,5,1,True,True,1.1810026979073882,correct,1,sub,26VF,2023-07-25_13h42.25.244,Standard,
"[<set_utils.cards.Card object at 0x1447faaf0>, <set_utils.cards.Card object at 0x1447faaf0>, <set_utils.cards.Card object at 0x1447faaf0>]",0,41,41,41,1,True,True,0.8733798221219331,correct,0,sub,26VF,2023-07-25_13h42.25.244,Standard,
"[<set_utils.cards.Card object at 0x1447fab20>, <set_utils.cards.Card object at 0x1447fac70>, <set_utils.cards.Card object at 0x1447faaf0>]",0,42,42,19,1,True,True,1.5743036170024425,correct,1,sub,26VF,2023-07-25_13h42.25.244,Standard,
"[<set_utils.cards.Card object at 0x1447fac70>, <set_utils.cards.Card object at 0x1447fac70>, <set_utils.cards.Card object at 0x1447fac70>]",0,43,43,40,1,True,True,0.806535457028076,correct,0,sub,26VF,2023-07-25_13h42.25.244,Standard,
"[<set_utils.cards.Card object at 0x1447fab20>, <set_utils.cards.Card object at 0x1447fac70>, <set_utils.cards.Card object at 0x1447faaf0>]",0,44,44,18,1,True,True,1.2611850451212376,correct,1,sub,26VF,2023-07-25_13h42.25.244,Standard,
"[<set_utils.cards.Card object at 0x1447fab20>, <set_utils.cards.Card object at 0x1447faaf0>, <set_utils.cards.Card object at 0x1447fac70>]",0,45,45,44,1,True,True,0.9080632538534701,correct,1,sub,26VF,2023-07-25_13h42.25.244,Standard,
"[<set_utils.cards.Card object at 0x1447fab20>, <set_utils.cards.Card object at 0x1447faaf0>, <set_utils.cards.Card object at 0x1447faaf0>]",0,46,46,12,1,False,False,0.777563578914851,correct,,sub,26VF,2023-07-25_13h42.25.244,Standard,
"[<set_utils.cards.Card object at 0x1447faaf0>, <set_utils.cards.Card object at 0x1447fac70>, <set_utils.cards.Card object at 0x1447fab20>]",0,47,47,8,1,True,True,1.2505578820127994,correct,1,sub,26VF,2023-07-25_13h42.25.244,Standard,
"[<set_utils.cards.Card object at 0x1447fab20>, <set_utils.cards.Card object at 0x1447faaf0>, <set_utils.cards.Card object at 0x1447faaf0>]",0,48,48,28,1,False,False,0.8737498861737549,correct,,sub,26VF,2023-07-25_13h42.25.244,Standard,
"[<set_utils.cards.Card object at 0x1447faaf0>, <set_utils.cards.Card object at 0x1447faaf0>, <set_utils.cards.Card object at 0x1447fab20>]",0,49,49,2,1,False,False,1.1237819960806519,correct,,sub,26VF,2023-07-25_13h42.25.244,Standard,
"[<set_utils.cards.Card object at 0x1447facd0>, <set_utils.cards.Card object at 0x1447fae50>, <set_utils.cards.Card object at 0x1447fac70>]",0,0,0,30,2,True,False,3.500385018065572,incorrect,2,sub,26VF,2023-07-25_13h42.25.244,Standard,
"[<set_utils.cards.Card object at 0x1447facd0>, <set_utils.cards.Card object at 0x1447fae50>, <set_utils.cards.Card object at 0x1447fadf0>]",0,1,1,39,2,False,False,3.349971557967365,correct,,sub,26VF,2023-07-25_13h42.25.244,Standard,
"[<set_utils.cards.Card object at 0x1447fad30>, <set_utils.cards.Card object at 0x1447faeb0>, <set_utils.cards.Card object at 0x1447fadf0>]",0,2,2,33,2,False,True,1.150351061951369,incorrect,,sub,26VF,2023-07-25_13h42.25.244,Standard,
"[<set_utils.cards.Card object at 0x1447fad90>, <set_utils.cards.Card object at 0x1447faaf0>, <set_utils.cards.Card object at 0x1447fad30>]",0,3,3,43,2,False,False,4.33020789292641,correct,,sub,26VF,2023-07-25_13h42.25.244,Standard,
"[<set_utils.cards.Card object at 0x1447faeb0>, <set_utils.cards.Card object at 0x1447facd0>, <set_utils.cards.Card object at 0x1447fac70>]",0,4,4,21,2,False,False,1.391631460050121,correct,,sub,26VF,2023-07-25_13h42.25.244,Standard,
"[<set_utils.cards.Card object at 0x1447faeb0>, <set_utils.cards.Card object at 0x1447facd0>, <set_utils.cards.Card object at 0x1447faaf0>]",0,5,5,42,2,True,True,0.9198201310355216,correct,2,sub,26VF,2023-07-25_13h42.25.244,Standard,
"[<set_utils.cards.Card object at 0x1447fab20>, <set_utils.cards.Card object at 0x1447facd0>, <set_utils.cards.Card object at 0x1447fadf0>]",0,6,6,1,2,True,True,2.101034572115168,correct,1,sub,26VF,2023-07-25_13h42.25.244,Standard,
"[<set_utils.cards.Card object at 0x1447faaf0>, <set_utils.cards.Card object at 0x1447fab20>, <set_utils.cards.Card object at 0x1447fac70>]",0,7,7,25,2,True,True,1.9844027028884739,correct,1,sub,26VF,2023-07-25_13h42.25.244,Standard,
"[<set_utils.cards.Card object at 0x1447facd0>, <set_utils.cards.Card object at 0x1447faaf0>, <set_utils.cards.Card object at 0x1447faeb0>]",0,8,8,19,2,True,True,2.760214628186077,correct,2,sub,26VF,2023-07-25_13h42.25.244,Standard,
"[<set_utils.cards.Card object at 0x1447fad90>, <set_utils.cards.Card object at 0x1447faaf0>, <set_utils.cards.Card object at 0x1447fae50>]",0,9,9,49,2,False,False,0.9326456419657916,correct,,sub,26VF,2023-07-25_13h42.25.244,Standard,
"[<set_utils.cards.Card object at 0x1447fadf0>, <set_utils.cards.Card object at 0x1447fac70>, <set_utils.cards.Card object at 0x1447faeb0>]",0,10,10,27,2,False,False,2.0323671670630574,correct,,sub,26VF,2023-07-25_13h42.25.244,Standard,
"[<set_utils.cards.Card object at 0x1447fadf0>, <set_utils.cards.Card object at 0x1447facd0>, <set_utils.cards.Card object at 0x1447fab20>]",0,11,11,11,2,True,True,3.4556332130450755,correct,1,sub,26VF,2023-07-25_13h42.25.244,Standard,
"[<set_utils.cards.Card object at 0x1447fae50>, <set_utils.cards.Card object at 0x1447fac70>, <set_utils.cards.Card object at 0x1447facd0>]",0,12,12,12,2,True,True,1.3931251869071275,correct,2,sub,26VF,2023-07-25_13h42.25.244,Standard,
"[<set_utils.cards.Card object at 0x1447faaf0>, <set_utils.cards.Card object at 0x1447fac70>, <set_utils.cards.Card object at 0x1447fab20>]",0,13,13,7,2,True,True,1.342720553977415,correct,1,sub,26VF,2023-07-25_13h42.25.244,Standard,
"[<set_utils.cards.Card object at 0x1447faeb0>, <set_utils.cards.Card object at 0x1447fae50>, <set_utils.cards.Card object at 0x1447fad30>]",0,14,14,0,2,False,True,2.6230078348889947,incorrect,,sub,26VF,2023-07-25_13h42.25.244,Standard,
"[<set_utils.cards.Card object at 0x1447fad90>, <set_utils.cards.Card object at 0x1447faaf0>, <set_utils.cards.Card object at 0x1447fadf0>]",0,15,15,28,2,True,True,1.6278023289050907,correct,2,sub,26VF,2023-07-25_13h42.25.244,Standard,
"[<set_utils.cards.Card object at 0x1447fae50>, <set_utils.cards.Card object at 0x1447fab20>, <set_utils.cards.Card object at 0x1447fad90>]",0,16,16,5,2,True,True,2.3011830879841,correct,2,sub,26VF,2023-07-25_13h42.25.244,Standard,
"[<set_utils.cards.Card object at 0x1447fad30>, <set_utils.cards.Card object at 0x1447fad90>, <set_utils.cards.Card object at 0x1447fae50>]",0,17,17,22,2,False,False,1.665900100953877,correct,,sub,26VF,2023-07-25_13h42.25.244,Standard,
"[<set_utils.cards.Card object at 0x1447fad30>, <set_utils.cards.Card object at 0x1447faeb0>, <set_utils.cards.Card object at 0x1447fae50>]",0,18,18,36,2,False,False,1.8158583329059184,correct,,sub,26VF,2023-07-25_13h42.25.244,Standard,
"[<set_utils.cards.Card object at 0x1447fadf0>, <set_utils.cards.Card object at 0x1447fad30>, <set_utils.cards.Card object at 0x1447fab20>]",0,19,19,35,2,False,False,1.3769493780564517,correct,,sub,26VF,2023-07-25_13h42.25.244,Standard,
"[<set_utils.cards.Card object at 0x1447fac70>, <set_utils.cards.Card object at 0x1447faeb0>, <set_utils.cards.Card object at 0x1447fad90>]",0,20,20,37,2,True,True,1.5357604860328138,correct,1,sub,26VF,2023-07-25_13h42.25.244,Standard,
"[<set_utils.cards.Card object at 0x1447facd0>, <set_utils.cards.Card object at 0x1447faeb0>, <set_utils.cards.Card object at 0x1447fadf0>]",0,21,21,40,2,False,False,2.778839800041169,correct,,sub,26VF,2023-07-25_13h42.25.244,Standard,
"[<set_utils.cards.Card object at 0x1447facd0>, <set_utils.cards.Card object at 0x1447fadf0>, <set_utils.cards.Card object at 0x1447fac70>]",0,22,22,24,2,False,False,0.7857811499852687,correct,,sub,26VF,2023-07-25_13h42.25.244,Standard,
"[<set_utils.cards.Card object at 0x1447fadf0>, <set_utils.cards.Card object at 0x1447faaf0>, <set_utils.cards.Card object at 0x1447fad90>]",0,23,23,32,2,True,True,1.1326480489224195,correct,2,sub,26VF,2023-07-25_13h42.25.244,Standard,
"[<set_utils.cards.Card object at 0x1447fae50>, <set_utils.cards.Card object at 0x1447fadf0>, <set_utils.cards.Card object at 0x1447faaf0>]",0,24,24,16,2,False,False,1.8025345250498503,correct,,sub,26VF,2023-07-25_13h42.25.244,Standard,
"[<set_utils.cards.Card object at 0x1447fad90>, <set_utils.cards.Card object at 0x1447fad30>, <set_utils.cards.Card object at 0x1447fac70>]",0,25,25,9,2,False,False,1.3215488290879875,correct,,sub,26VF,2023-07-25_13h42.25.244,Standard,
"[<set_utils.cards.Card object at 0x1447fadf0>, <set_utils.cards.Card object at 0x1447fae50>, <set_utils.cards.Card object at 0x1447faeb0>]",0,26,26,17,2,True,True,1.6645584909711033,correct,1,sub,26VF,2023-07-25_13h42.25.244,Standard,
"[<set_utils.cards.Card object at 0x1447fac70>, <set_utils.cards.Card object at 0x1447faeb0>, <set_utils.cards.Card object at 0x1447fad90>]",0,27,27,2,2,True,False,0.9227065870072693,incorrect,1,sub,26VF,2023-07-25_13h42.25.244,Standard,
"[<set_utils.cards.Card object at 0x1447fac70>, <set_utils.cards.Card object at 0x1447faeb0>, <set_utils.cards.Card object at 0x1447facd0>]",0,28,28,18,2,False,False,1.9294134988449514,correct,,sub,26VF,2023-07-25_13h42.25.244,Standard,
"[<set_utils.cards.Card object at 0x1447fad30>, <set_utils.cards.Card object at 0x1447fae50>, <set_utils.cards.Card object at 0x1447faaf0>]",0,29,29,38,2,True,True,0.9860538900829852,correct,1,sub,26VF,2023-07-25_13h42.25.244,Standard,
"[<set_utils.cards.Card object at 0x1447fab20>, <set_utils.cards.Card object at 0x1447fad90>, <set_utils.cards.Card object at 0x1447fae50>]",0,30,30,15,2,True,True,1.8709902120754123,correct,2,sub,26VF,2023-07-25_13h42.25.244,Standard,
"[<set_utils.cards.Card object at 0x1447fad30>, <set_utils.cards.Card object at 0x1447fad90>, <set_utils.cards.Card object at 0x1447facd0>]",0,31,31,47,2,True,False,0.8137489298824221,incorrect,1,sub,26VF,2023-07-25_13h42.25.244,Standard,
"[<set_utils.cards.Card object at 0x1447fac70>, <set_utils.cards.Card object at 0x1447fadf0>, <set_utils.cards.Card object at 0x1447fae50>]",0,32,32,10,2,False,True,1.1704999320209026,incorrect,,sub,26VF,2023-07-25_13h42.25.244,Standard,
"[<set_utils.cards.Card object at 0x1447fae50>, <set_utils.cards.Card object at 0x1447fadf0>, <set_utils.cards.Card object at 0x1447faeb0>]",0,33,33,26,2,True,True,1.5771361191291362,correct,1,sub,26VF,2023-07-25_13h42.25.244,Standard,
"[<set_utils.cards.Card object at 0x1447faeb0>, <set_utils.cards.Card object at 0x1447fadf0>, <set_utils.cards.Card object at 0x1447facd0>]",0,34,34,44,2,False,False,0.8879199458751827,correct,,sub,26VF,2023-07-25_13h42.25.244,Standard,
"[<set_utils.cards.Card object at 0x1447fad30>, <set_utils.cards.Card object at 0x1447faaf0>, <set_utils.cards.Card object at 0x1447fae50>]",0,35,35,31,2,True,True,1.2716903688851744,correct,1,sub,26VF,2023-07-25_13h42.25.244,Standard,
"[<set_utils.cards.Card object at 0x1447fad30>, <set_utils.cards.Card object at 0x1447fae50>, <set_utils.cards.Card object at 0x1447faaf0>]",0,36,36,13,2,True,True,0.9170077238231897,correct,1,sub,26VF,2023-07-25_13h42.25.244,Standard,
"[<set_utils.cards.Card object at 0x1447fac70>, <set_utils.cards.Card object at 0x1447fad30>, <set_utils.cards.Card object at 0x1447fadf0>]",0,37,37,41,2,True,True,4.543095517903566,correct,2,sub,26VF,2023-07-25_13h42.25.244,Standard,
"[<set_utils.cards.Card object at 0x1447faaf0>, <set_utils.cards.Card object at 0x1447fadf0>, <set_utils.cards.Card object at 0x1447fae50>]",0,38,38,45,2,False,False,1.4884388737846166,correct,,sub,26VF,2023-07-25_13h42.25.244,Standard,
"[<set_utils.cards.Card object at 0x1447fadf0>, <set_utils.cards.Card object at 0x1447fae50>, <set_utils.cards.Card object at 0x1447fad90>]",0,39,39,14,2,False,True,1.9917613060679287,incorrect,,sub,26VF,2023-07-25_13h42.25.244,Standard,
"[<set_utils.cards.Card object at 0x1447fac70>, <set_utils.cards.Card object at 0x1447fad90>, <set_utils.cards.Card object at 0x1447faeb0>]",0,40,40,46,2,True,True,1.1496403571218252,correct,1,sub,26VF,2023-07-25_13h42.25.244,Standard,
"[<set_utils.cards.Card object at 0x1447faeb0>, <set_utils.cards.Card object at 0x1447fae50>, <set_utils.cards.Card object at 0x1447facd0>]",0,41,41,23,2,False,True,1.4763812760356814,incorrect,,sub,26VF,2023-07-25_13h42.25.244,Standard,
"[<set_utils.cards.Card object at 0x1447fad90>, <set_utils.cards.Card object at 0x1447fac70>, <set_utils.cards.Card object at 0x1447fadf0>]",0,42,42,3,2,False,False,2.6432881238870323,correct,,sub,26VF,2023-07-25_13h42.25.244,Standard,
"[<set_utils.cards.Card object at 0x1447facd0>, <set_utils.cards.Card object at 0x1447fae50>, <set_utils.cards.Card object at 0x1447fac70>]",0,43,43,20,2,True,True,2.818837371887639,correct,2,sub,26VF,2023-07-25_13h42.25.244,Standard,
"[<set_utils.cards.Card object at 0x1447fac70>, <set_utils.cards.Card object at 0x1447fae50>, <set_utils.cards.Card object at 0x1447facd0>]",0,44,44,4,2,True,True,2.275083818938583,correct,2,sub,26VF,2023-07-25_13h42.25.244,Standard,
"[<set_utils.cards.Card object at 0x1447fad30>, <set_utils.cards.Card object at 0x1447facd0>, <set_utils.cards.Card object at 0x1447fab20>]",0,45,45,6,2,False,False,0.6684681810438633,correct,,sub,26VF,2023-07-25_13h42.25.244,Standard,
"[<set_utils.cards.Card object at 0x1447fad30>, <set_utils.cards.Card object at 0x1447fab20>, <set_utils.cards.Card object at 0x1447fadf0>]",0,46,46,29,2,False,False,0.7708983710035682,correct,,sub,26VF,2023-07-25_13h42.25.244,Standard,
"[<set_utils.cards.Card object at 0x1447fac70>, <set_utils.cards.Card object at 0x1447faaf0>, <set_utils.cards.Card object at 0x1447fae50>]",0,47,47,48,2,False,False,0.6853670959826559,correct,,sub,26VF,2023-07-25_13h42.25.244,Standard,
"[<set_utils.cards.Card object at 0x1447fad30>, <set_utils.cards.Card object at 0x1447faaf0>, <set_utils.cards.Card object at 0x1447fae50>]",0,48,48,8,2,True,True,0.8798775400500745,correct,1,sub,26VF,2023-07-25_13h42.25.244,Standard,
"[<set_utils.cards.Card object at 0x1447fad90>, <set_utils.cards.Card object at 0x1447fab20>, <set_utils.cards.Card object at 0x1447fad30>]",0,49,49,34,2,False,True,1.5872922921553254,incorrect,,sub,26VF,2023-07-25_13h42.25.244,Standard,
"[<set_utils.cards.Card object at 0x1447ff430>, <set_utils.cards.Card object at 0x1447fab20>, <set_utils.cards.Card object at 0x1447ff250>]",0,0,0,36,3,True,False,2.8798721160274,incorrect,3,sub,26VF,2023-07-25_13h42.25.244,Standard,
"[<set_utils.cards.Card object at 0x1447ff3d0>, <set_utils.cards.Card object at 0x1447faeb0>, <set_utils.cards.Card object at 0x1447faaf0>]",0,1,1,19,3,False,True,2.132301552919671,incorrect,,sub,26VF,2023-07-25_13h42.25.244,Standard,
"[<set_utils.cards.Card object at 0x1447ff070>, <set_utils.cards.Card object at 0x1447ff490>, <set_utils.cards.Card object at 0x1447ff310>]",0,2,2,28,3,False,False,1.0188584111165255,correct,,sub,26VF,2023-07-25_13h42.25.244,Standard,
"[<set_utils.cards.Card object at 0x1447fadf0>, <set_utils.cards.Card object at 0x1447ff2b0>, <set_utils.cards.Card object at 0x1447ff1f0>]",0,3,3,2,3,False,False,2.3001808230765164,correct,,sub,26VF,2023-07-25_13h42.25.244,Standard,
"[<set_utils.cards.Card object at 0x1447ff2b0>, <set_utils.cards.Card object at 0x1447fafd0>, <set_utils.cards.Card object at 0x1447faaf0>]",0,4,4,30,3,True,True,1.2158644159790128,correct,2,sub,26VF,2023-07-25_13h42.25.244,Standard,
"[<set_utils.cards.Card object at 0x1447facd0>, <set_utils.cards.Card object at 0x1447fad30>, <set_utils.cards.Card object at 0x1447ff3d0>]",0,5,5,12,3,False,False,0.8367984730284661,correct,,sub,26VF,2023-07-25_13h42.25.244,Standard,
"[<set_utils.cards.Card object at 0x1447fae50>, <set_utils.cards.Card object at 0x1447ff070>, <set_utils.cards.Card object at 0x1447fad30>]",0,6,6,38,3,False,True,1.970780381001532,incorrect,,sub,26VF,2023-07-25_13h42.25.244,Standard,
"[<set_utils.cards.Card object at 0x1447ff5b0>, <set_utils.cards.Card object at 0x1447ff2b0>, <set_utils.cards.Card object at 0x1447ff430>]",0,7,7,29,3,True,True,1.81774136191234,correct,2,sub,26VF,2023-07-25_13h42.25.244,Standard,
"[<set_utils.cards.Card object at 0x1447ff190>, <set_utils.cards.Card object at 0x1447ff2b0>, <set_utils.cards.Card object at 0x1447ff3d0>]",0,8,8,33,3,False,False,0.8656954928301275,correct,,sub,26VF,2023-07-25_13h42.25.244,Standard,
"[<set_utils.cards.Card object at 0x1447ff490>, <set_utils.cards.Card object at 0x1447ff130>, <set_utils.cards.Card object at 0x1447fad90>]",0,9,9,18,3,True,True,1.6698105919640511,correct,1,sub,26VF,2023-07-25_13h42.25.244,Standard,
"[<set_utils.cards.Card object at 0x1447fae50>, <set_utils.cards.Card object at 0x1447ff2b0>, <set_utils.cards.Card object at 0x1447ff3d0>]",0,10,10,3,3,False,False,1.768008004873991,correct,,sub,26VF,2023-07-25_13h42.25.244,Standard,
"[<set_utils.cards.Card object at 0x1447ff2b0>, <set_utils.cards.Card object at 0x1447ff4f0>, <set_utils.cards.Card object at 0x1447fab20>]",0,11,11,39,3,False,True,3.287836021045223,incorrect,,sub,26VF,2023-07-25_13h42.25.244,Standard,
"[<set_utils.cards.Card object at 0x1447ff490>, <set_utils.cards.Card object at 0x1447ff250>, <set_utils.cards.Card object at 0x1447ff2b0>]",0,12,12,41,3,False,False,1.6989101690705866,correct,,sub,26VF,2023-07-25_13h42.25.244,Standard,
"[<set_utils.cards.Card object at 0x1447fab20>, <set_utils.cards.Card object at 0x1447ff5b0>, <set_utils.cards.Card object at 0x1447ff0d0>]",0,13,13,42,3,True,True,1.1612815759144723,correct,3,sub,26VF,2023-07-25_13h42.25.244,Standard,
"[<set_utils.cards.Card object at 0x1447ff550>, <set_utils.cards.Card object at 0x1447faf70>, <set_utils.cards.Card object at 0x1447fad30>]",0,14,14,1,3,True,False,2.9667776480782777,incorrect,2,sub,26VF,2023-07-25_13h42.25.244,Standard,
"[<set_utils.cards.Card object at 0x1447faf10>, <set_utils.cards.Card object at 0x1447fae50>, <set_utils.cards.Card object at 0x1447ff490>]",0,15,15,40,3,True,False,2.019652308896184,incorrect,3,sub,26VF,2023-07-25_13h42.25.244,Standard,
"[<set_utils.cards.Card object at 0x1447fac70>, <set_utils.cards.Card object at 0x1447fad90>, <set_utils.cards.Card object at 0x1447faeb0>]",0,16,16,49,3,True,True,0.8985726409591734,correct,1,sub,26VF,2023-07-25_13h42.25.244,Standard,
"[<set_utils.cards.Card object at 0x1447fadf0>, <set_utils.cards.Card object at 0x1447fad30>, <set_utils.cards.Card object at 0x1447fafd0>]",0,17,17,7,3,False,True,3.4825445089954883,incorrect,,sub,26VF,2023-07-25_13h42.25.244,Standard,
"[<set_utils.cards.Card object at 0x1447ff5b0>, <set_utils.cards.Card object at 0x1447fadf0>, <set_utils.cards.Card object at 0x1447ff1f0>]",0,18,18,23,3,True,False,3.2055405790451914,incorrect,2,sub,26VF,2023-07-25_13h42.25.244,Standard,
"[<set_utils.cards.Card object at 0x1447ff490>, <set_utils.cards.Card object at 0x1447fad30>, <set_utils.cards.Card object at 0x1447ff070>]",0,19,19,15,3,True,True,4.235967563930899,correct,2,sub,26VF,2023-07-25_13h42.25.244,Standard,
"[<set_utils.cards.Card object at 0x1447ff550>, <set_utils.cards.Card object at 0x1447faf70>, <set_utils.cards.Card object at 0x1447fad30>]",0,20,20,9,3,True,True,1.5727878629695624,correct,2,sub,26VF,2023-07-25_13h42.25.244,Standard,
"[<set_utils.cards.Card object at 0x1447ff370>, <set_utils.cards.Card object at 0x1447ff070>, <set_utils.cards.Card object at 0x1447fae50>]",0,21,21,14,3,True,True,1.9489636740181595,correct,3,sub,26VF,2023-07-25_13h42.25.244,Standard,
"[<set_utils.cards.Card object at 0x1447ff070>, <set_utils.cards.Card object at 0x1447ff1f0>, <set_utils.cards.Card object at 0x1447ff250>]",0,22,22,20,3,False,True,1.3034096488263458,incorrect,,sub,26VF,2023-07-25_13h42.25.244,Standard,
"[<set_utils.cards.Card object at 0x1447faf10>, <set_utils.cards.Card object at 0x1447faeb0>, <set_utils.cards.Card object at 0x1447ff430>]",0,23,23,32,3,True,True,4.215070649050176,correct,3,sub,26VF,2023-07-25_13h42.25.244,Standard,
"[<set_utils.cards.Card object at 0x1447ff2b0>, <set_utils.cards.Card object at 0x1447ff550>, <set_utils.cards.Card object at 0x1447ff490>]",0,24,24,46,3,True,False,2.17524807411246,incorrect,2,sub,26VF,2023-07-25_13h42.25.244,Standard,
"[<set_utils.cards.Card object at 0x1447fab20>, <set_utils.cards.Card object at 0x1447ff1f0>, <set_utils.cards.Card object at 0x1447faf70>]",0,25,25,44,3,False,False,0.9650943360757083,correct,,sub,26VF,2023-07-25_13h42.25.244,Standard,
"[<set_utils.cards.Card object at 0x1447fad90>, <set_utils.cards.Card object at 0x1447faf10>, <set_utils.cards.Card object at 0x1447facd0>]",0,26,26,11,3,False,False,1.492276833159849,correct,,sub,26VF,2023-07-25_13h42.25.244,Standard,
"[<set_utils.cards.Card object at 0x1447fad90>, <set_utils.cards.Card object at 0x1447ff490>, <set_utils.cards.Card object at 0x1447ff1f0>]",0,27,27,8,3,False,False,1.0094833138864487,correct,,sub,26VF,2023-07-25_13h42.25.244,Standard,
"[<set_utils.cards.Card object at 0x1447fab20>, <set_utils.cards.Card object at 0x1447faf10>, <set_utils.cards.Card object at 0x1447ff2b0>]",0,28,28,0,3,True,True,0.8511335421353579,correct,1,sub,26VF,2023-07-25_13h42.25.244,Standard,
"[<set_utils.cards.Card object at 0x1447ff430>, <set_utils.cards.Card object at 0x1447ff070>, <set_utils.cards.Card object at 0x1447fae50>]",0,29,29,22,3,False,True,1.4102947120554745,incorrect,,sub,26VF,2023-07-25_13h42.25.244,Standard,
"[<set_utils.cards.Card object at 0x1447ff250>, <set_utils.cards.Card object at 0x1447facd0>, <set_utils.cards.Card object at 0x1447fadf0>]",0,30,30,37,3,False,False,1.4021706108469516,correct,,sub,26VF,2023-07-25_13h42.25.244,Standard,
"[<set_utils.cards.Card object at 0x1447fadf0>, <set_utils.cards.Card object at 0x1447ff490>, <set_utils.cards.Card object at 0x1447faf70>]",0,31,31,31,3,True,True,1.4026938651222736,correct,3,sub,26VF,2023-07-25_13h42.25.244,Standard,
"[<set_utils.cards.Card object at 0x1447fad90>, <set_utils.cards.Card object at 0x1447ff2b0>, <set_utils.cards.Card object at 0x1447faeb0>]",0,32,32,17,3,False,False,2.0133772979024798,correct,,sub,26VF,2023-07-25_13h42.25.244,Standard,
"[<set_utils.cards.Card object at 0x1447ff4f0>, <set_utils.cards.Card object at 0x1447fafd0>, <set_utils.cards.Card object at 0x1447fad90>]",0,33,33,48,3,False,True,0.9498394578695297,incorrect,,sub,26VF,2023-07-25_13h42.25.244,Standard,
"[<set_utils.cards.Card object at 0x1447ff190>, <set_utils.cards.Card object at 0x1447faf10>, <set_utils.cards.Card object at 0x1447ff070>]",0,34,34,45,3,True,True,2.1352293251547962,correct,1,sub,26VF,2023-07-25_13h42.25.244,Standard,
"[<set_utils.cards.Card object at 0x1447fafd0>, <set_utils.cards.Card object at 0x1447fac70>, <set_utils.cards.Card object at 0x1447ff370>]",0,35,35,27,3,True,True,1.0493986050132662,correct,1,sub,26VF,2023-07-25_13h42.25.244,Standard,
"[<set_utils.cards.Card object at 0x1447ff430>, <set_utils.cards.Card object at 0x1447ff310>, <set_utils.cards.Card object at 0x1447ff5b0>]",0,36,36,16,3,False,False,1.205822949996218,correct,,sub,26VF,2023-07-25_13h42.25.244,Standard,
"[<set_utils.cards.Card object at 0x1447ff250>, <set_utils.cards.Card object at 0x1447ff070>, <set_utils.cards.Card object at 0x1447faf70>]",0,37,37,43,3,True,False,1.3691842649132013,incorrect,2,sub,26VF,2023-07-25_13h42.25.244,Standard,
"[<set_utils.cards.Card object at 0x1447fafd0>, <set_utils.cards.Card object at 0x1447ff4f0>, <set_utils.cards.Card object at 0x1447fad30>]",0,38,38,26,3,True,True,1.3205351040232927,correct,3,sub,26VF,2023-07-25_13h42.25.244,Standard,
"[<set_utils.cards.Card object at 0x1447fadf0>, <set_utils.cards.Card object at 0x1447fad90>, <set_utils.cards.Card object at 0x1447faaf0>]",0,39,39,47,3,True,True,5.24076687800698,correct,2,sub,26VF,2023-07-25_13h42.25.244,Standard,
"[<set_utils.cards.Card object at 0x1447ff550>, <set_utils.cards.Card object at 0x1447ff310>, <set_utils.cards.Card object at 0x1447ff130>]",0,40,40,25,3,False,False,3.072384427068755,correct,,sub,26VF,2023-07-25_13h42.25.244,Standard,
"[<set_utils.cards.Card object at 0x1447ff310>, <set_utils.cards.Card object at 0x1447faeb0>, <set_utils.cards.Card object at 0x1447fac70>]",0,41,41,5,3,False,False,1.9044986958615482,correct,,sub,26VF,2023-07-25_13h42.25.244,Standard,
"[<set_utils.cards.Card object at 0x1447ff370>, <set_utils.cards.Card object at 0x1447faeb0>, <set_utils.cards.Card object at 0x1447ff130>]",0,42,42,21,3,True,False,5.297855697805062,incorrect,2,sub,26VF,2023-07-25_13h42.25.244,Standard,
"[<set_utils.cards.Card object at 0x1447ff310>, <set_utils.cards.Card object at 0x1447ff0d0>, <set_utils.cards.Card object at 0x1447fae50>]",0,43,43,34,3,True,True,1.0870916519779712,correct,2,sub,26VF,2023-07-25_13h42.25.244,Standard,
"[<set_utils.cards.Card object at 0x1447ff550>, <set_utils.cards.Card object at 0x1447faaf0>, <set_utils.cards.Card object at 0x1447faf10>]",0,44,44,24,3,False,True,5.75822340301238,incorrect,,sub,26VF,2023-07-25_13h42.25.244,Standard,
"[<set_utils.cards.Card object at 0x1447fadf0>, <set_utils.cards.Card object at 0x1447ff3d0>, <set_utils.cards.Card object at 0x1447faf10>]",0,45,45,35,3,True,True,4.99246262293309,correct,2,sub,26VF,2023-07-25_13h42.25.244,Standard,
"[<set_utils.cards.Card object at 0x1447fae50>, <set_utils.cards.Card object at 0x1447ff370>, <set_utils.cards.Card object at 0x1447ff070>]",0,46,46,13,3,True,True,7.424897453049198,correct,3,sub,26VF,2023-07-25_13h42.25.244,Standard,
"[<set_utils.cards.Card object at 0x1447faaf0>, <set_utils.cards.Card object at 0x1447fadf0>, <set_utils.cards.Card object at 0x1447fae50>]",0,47,47,10,3,False,False,1.0201306769158691,correct,,sub,26VF,2023-07-25_13h42.25.244,Standard,
"[<set_utils.cards.Card object at 0x1447ff250>, <set_utils.cards.Card object at 0x1447facd0>, <set_utils.cards.Card object at 0x1447ff5b0>]",0,48,48,6,3,False,False,2.50810867594555,correct,,sub,26VF,2023-07-25_13h42.25.244,Standard,
"[<set_utils.cards.Card object at 0x1447ff070>, <set_utils.cards.Card object at 0x1447ff2b0>, <set_utils.cards.Card object at 0x1447ff0d0>]",0,49,49,4,3,False,False,1.1535545329097658,correct,,sub,26VF,2023-07-25_13h42.25.244,Standard,
