hand,.thisRepN,.thisTrialN,.thisN,.thisIndex,block,correctResp,setLevel,userResp,RT,evaluation,subjectID,age,date,experiment_type,
"[<set_utils.cards.Card object at 0x1481fbc70>, <set_utils.cards.Card object at 0x1481fbca0>, <set_utils.cards.Card object at 0x1481fbdf0>]",0,0,0,3,1,True,1,False,3.577115722000599,incorrect,sub,50,2023-05-02_18h34.48.781,Standard,
"[<set_utils.cards.Card object at 0x1481fbc70>, <set_utils.cards.Card object at 0x1481fbc70>, <set_utils.cards.Card object at 0x1481fbc70>]",0,1,1,23,1,True,0,True,1.8374085808172822,correct,sub,50,2023-05-02_18h34.48.781,Standard,
"[<set_utils.cards.Card object at 0x1481fbc70>, <set_utils.cards.Card object at 0x1481fbdf0>, <set_utils.cards.Card object at 0x1481fbca0>]",0,2,2,29,1,True,1,False,1.9954946106299758,incorrect,sub,50,2023-05-02_18h34.48.781,Standard,
"[<set_utils.cards.Card object at 0x1481fbdf0>, <set_utils.cards.Card object at 0x1481fbca0>, <set_utils.cards.Card object at 0x1481fbc70>]",0,3,3,37,1,True,1,False,2.6688898783177137,incorrect,sub,50,2023-05-02_18h34.48.781,Standard,
"[<set_utils.cards.Card object at 0x1481fbc70>, <set_utils.cards.Card object at 0x1481fbdf0>, <set_utils.cards.Card object at 0x1481fbca0>]",0,4,4,36,1,True,1,True,1.447940138168633,correct,sub,50,2023-05-02_18h34.48.781,Standard,
"[<set_utils.cards.Card object at 0x1481fbca0>, <set_utils.cards.Card object at 0x1481fbdf0>, <set_utils.cards.Card object at 0x1481fbc70>]",0,5,5,38,1,True,1,True,2.7644808664917946,correct,sub,50,2023-05-02_18h34.48.781,Standard,
"[<set_utils.cards.Card object at 0x1481fbdf0>, <set_utils.cards.Card object at 0x1481fbca0>, <set_utils.cards.Card object at 0x1481fbdf0>]",0,6,6,33,1,False,,True,1.807460879907012,incorrect,sub,50,2023-05-02_18h34.48.781,Standard,
"[<set_utils.cards.Card object at 0x1481fbdf0>, <set_utils.cards.Card object at 0x1481fbdf0>, <set_utils.cards.Card object at 0x1481fbc70>]",0,7,7,28,1,False,,False,1.4246100513264537,correct,sub,50,2023-05-02_18h34.48.781,Standard,
"[<set_utils.cards.Card object at 0x1481fbdf0>, <set_utils.cards.Card object at 0x1481fbc70>, <set_utils.cards.Card object at 0x1481fbca0>]",0,8,8,10,1,True,1,False,1.2794358413666487,incorrect,sub,50,2023-05-02_18h34.48.781,Standard,
"[<set_utils.cards.Card object at 0x1481fbc70>, <set_utils.cards.Card object at 0x1481fbc70>, <set_utils.cards.Card object at 0x1481fbdf0>]",0,9,9,16,1,False,,False,1.4851584443822503,correct,sub,50,2023-05-02_18h34.48.781,Standard,
"[<set_utils.cards.Card object at 0x1481fbca0>, <set_utils.cards.Card object at 0x1481fbdf0>, <set_utils.cards.Card object at 0x1481fbc70>]",0,10,10,4,1,True,1,True,1.7330719074234366,correct,sub,50,2023-05-02_18h34.48.781,Standard,
"[<set_utils.cards.Card object at 0x1481fbdf0>, <set_utils.cards.Card object at 0x1481fbc70>, <set_utils.cards.Card object at 0x1481fbc70>]",0,11,11,43,1,False,,False,1.0766770346090198,correct,sub,50,2023-05-02_18h34.48.781,Standard,
"[<set_utils.cards.Card object at 0x1481fbca0>, <set_utils.cards.Card object at 0x1481fbdf0>, <set_utils.cards.Card object at 0x1481fbc70>]",0,12,12,34,1,True,1,True,1.9813035456463695,correct,sub,50,2023-05-02_18h34.48.781,Standard,
"[<set_utils.cards.Card object at 0x1481fbca0>, <set_utils.cards.Card object at 0x1481fbc70>, <set_utils.cards.Card object at 0x1481fbca0>]",0,13,13,45,1,False,,False,1.1696147192269564,correct,sub,50,2023-05-02_18h34.48.781,Standard,
"[<set_utils.cards.Card object at 0x1481fbdf0>, <set_utils.cards.Card object at 0x1481fbdf0>, <set_utils.cards.Card object at 0x1481fbc70>]",0,14,14,49,1,False,,False,2.7721019154414535,correct,sub,50,2023-05-02_18h34.48.781,Standard,
"[<set_utils.cards.Card object at 0x1481fbc70>, <set_utils.cards.Card object at 0x1481fbc70>, <set_utils.cards.Card object at 0x1481fbc70>]",0,15,15,21,1,True,0,False,1.137923956848681,incorrect,sub,50,2023-05-02_18h34.48.781,Standard,
"[<set_utils.cards.Card object at 0x1481fbca0>, <set_utils.cards.Card object at 0x1481fbc70>, <set_utils.cards.Card object at 0x1481fbca0>]",0,16,16,32,1,False,,False,1.2617996027693152,correct,sub,50,2023-05-02_18h34.48.781,Standard,
"[<set_utils.cards.Card object at 0x1481fbca0>, <set_utils.cards.Card object at 0x1481fbdf0>, <set_utils.cards.Card object at 0x1481fbc70>]",0,17,17,17,1,True,1,True,1.5543073881417513,correct,sub,50,2023-05-02_18h34.48.781,Standard,
"[<set_utils.cards.Card object at 0x1481fbdf0>, <set_utils.cards.Card object at 0x1481fbc70>, <set_utils.cards.Card object at 0x1481fbdf0>]",0,18,18,40,1,False,,False,1.309709989465773,correct,sub,50,2023-05-02_18h34.48.781,Standard,
"[<set_utils.cards.Card object at 0x1481fbdf0>, <set_utils.cards.Card object at 0x1481fbc70>, <set_utils.cards.Card object at 0x1481fbc70>]",0,19,19,39,1,False,,False,1.1468835044652224,correct,sub,50,2023-05-02_18h34.48.781,Standard,
"[<set_utils.cards.Card object at 0x1481fbdf0>, <set_utils.cards.Card object at 0x1481fbca0>, <set_utils.cards.Card object at 0x1481fbdf0>]",0,20,20,12,1,False,,False,1.0527484295889735,correct,sub,50,2023-05-02_18h34.48.781,Standard,
"[<set_utils.cards.Card object at 0x1481fbca0>, <set_utils.cards.Card object at 0x1481fbc70>, <set_utils.cards.Card object at 0x1481fbdf0>]",0,21,21,20,1,True,1,True,1.2393924063071609,correct,sub,50,2023-05-02_18h34.48.781,Standard,
"[<set_utils.cards.Card object at 0x1481fbdf0>, <set_utils.cards.Card object at 0x1481fbca0>, <set_utils.cards.Card object at 0x1481fbca0>]",0,22,22,6,1,False,,False,1.0273024244233966,correct,sub,50,2023-05-02_18h34.48.781,Standard,
"[<set_utils.cards.Card object at 0x1481fbca0>, <set_utils.cards.Card object at 0x1481fbca0>, <set_utils.cards.Card object at 0x1481fbca0>]",0,23,23,7,1,True,0,True,1.733351512812078,correct,sub,50,2023-05-02_18h34.48.781,Standard,
"[<set_utils.cards.Card object at 0x1481fbdf0>, <set_utils.cards.Card object at 0x1481fbdf0>, <set_utils.cards.Card object at 0x1481fbca0>]",0,24,24,25,1,False,,False,1.1171310609206557,correct,sub,50,2023-05-02_18h34.48.781,Standard,
"[<set_utils.cards.Card object at 0x1481fbc70>, <set_utils.cards.Card object at 0x1481fbc70>, <set_utils.cards.Card object at 0x1481fbca0>]",0,25,25,15,1,False,,False,1.3148906687274575,correct,sub,50,2023-05-02_18h34.48.781,Standard,
"[<set_utils.cards.Card object at 0x1481fbdf0>, <set_utils.cards.Card object at 0x1481fbca0>, <set_utils.cards.Card object at 0x1481fbca0>]",0,26,26,42,1,False,,False,0.9892518632113934,correct,sub,50,2023-05-02_18h34.48.781,Standard,
"[<set_utils.cards.Card object at 0x1481fbdf0>, <set_utils.cards.Card object at 0x1481fbc70>, <set_utils.cards.Card object at 0x1481fbdf0>]",0,27,27,0,1,False,,True,0.8970362730324268,incorrect,sub,50,2023-05-02_18h34.48.781,Standard,
"[<set_utils.cards.Card object at 0x1481fbca0>, <set_utils.cards.Card object at 0x1481fbca0>, <set_utils.cards.Card object at 0x1481fbc70>]",0,28,28,44,1,False,,False,1.1491532484069467,correct,sub,50,2023-05-02_18h34.48.781,Standard,
"[<set_utils.cards.Card object at 0x1481fbc70>, <set_utils.cards.Card object at 0x1481fbdf0>, <set_utils.cards.Card object at 0x1481fbca0>]",0,29,29,46,1,True,1,False,1.2715434096753597,incorrect,sub,50,2023-05-02_18h34.48.781,Standard,
"[<set_utils.cards.Card object at 0x1481fbdf0>, <set_utils.cards.Card object at 0x1481fbc70>, <set_utils.cards.Card object at 0x1481fbca0>]",0,30,30,8,1,True,1,True,0.9855795884504914,correct,sub,50,2023-05-02_18h34.48.781,Standard,
"[<set_utils.cards.Card object at 0x1481fbdf0>, <set_utils.cards.Card object at 0x1481fbdf0>, <set_utils.cards.Card object at 0x1481fbca0>]",0,31,31,30,1,False,,False,1.1918951319530606,correct,sub,50,2023-05-02_18h34.48.781,Standard,
"[<set_utils.cards.Card object at 0x1481fbdf0>, <set_utils.cards.Card object at 0x1481fbc70>, <set_utils.cards.Card object at 0x1481fbca0>]",0,32,32,22,1,True,1,True,1.0850436994805932,correct,sub,50,2023-05-02_18h34.48.781,Standard,
"[<set_utils.cards.Card object at 0x1481fbc70>, <set_utils.cards.Card object at 0x1481fbdf0>, <set_utils.cards.Card object at 0x1481fbca0>]",0,33,33,1,1,True,1,True,1.7709446474909782,correct,sub,50,2023-05-02_18h34.48.781,Standard,
"[<set_utils.cards.Card object at 0x1481fbc70>, <set_utils.cards.Card object at 0x1481fbdf0>, <set_utils.cards.Card object at 0x1481fbdf0>]",0,34,34,35,1,False,,False,0.972312806174159,correct,sub,50,2023-05-02_18h34.48.781,Standard,
"[<set_utils.cards.Card object at 0x1481fbc70>, <set_utils.cards.Card object at 0x1481fbca0>, <set_utils.cards.Card object at 0x1481fbdf0>]",0,35,35,41,1,True,1,True,1.3730468954890966,correct,sub,50,2023-05-02_18h34.48.781,Standard,
"[<set_utils.cards.Card object at 0x1481fbca0>, <set_utils.cards.Card object at 0x1481fbdf0>, <set_utils.cards.Card object at 0x1481fbc70>]",0,36,36,47,1,True,1,True,1.303920404985547,correct,sub,50,2023-05-02_18h34.48.781,Standard,
"[<set_utils.cards.Card object at 0x1481fbca0>, <set_utils.cards.Card object at 0x1481fbc70>, <set_utils.cards.Card object at 0x1481fbca0>]",0,37,37,5,1,False,,False,1.186004862189293,correct,sub,50,2023-05-02_18h34.48.781,Standard,
"[<set_utils.cards.Card object at 0x1481fbdf0>, <set_utils.cards.Card object at 0x1481fbc70>, <set_utils.cards.Card object at 0x1481fbca0>]",0,38,38,26,1,True,1,True,1.4787385500967503,correct,sub,50,2023-05-02_18h34.48.781,Standard,
"[<set_utils.cards.Card object at 0x1481fbdf0>, <set_utils.cards.Card object at 0x1481fbc70>, <set_utils.cards.Card object at 0x1481fbca0>]",0,39,39,2,1,True,1,True,1.4060700023546815,correct,sub,50,2023-05-02_18h34.48.781,Standard,
"[<set_utils.cards.Card object at 0x1481fbc70>, <set_utils.cards.Card object at 0x1481fbdf0>, <set_utils.cards.Card object at 0x1481fbca0>]",0,40,40,11,1,True,1,True,1.225392577238381,correct,sub,50,2023-05-02_18h34.48.781,Standard,
"[<set_utils.cards.Card object at 0x1481fbca0>, <set_utils.cards.Card object at 0x1481fbdf0>, <set_utils.cards.Card object at 0x1481fbdf0>]",0,41,41,19,1,False,,False,1.2178460117429495,correct,sub,50,2023-05-02_18h34.48.781,Standard,
"[<set_utils.cards.Card object at 0x1481fbdf0>, <set_utils.cards.Card object at 0x1481fbc70>, <set_utils.cards.Card object at 0x1481fbca0>]",0,42,42,14,1,True,1,True,1.3975338051095605,correct,sub,50,2023-05-02_18h34.48.781,Standard,
"[<set_utils.cards.Card object at 0x1481fbc70>, <set_utils.cards.Card object at 0x1481fbdf0>, <set_utils.cards.Card object at 0x1481fbc70>]",0,43,43,48,1,False,,True,0.9094097604975104,incorrect,sub,50,2023-05-02_18h34.48.781,Standard,
"[<set_utils.cards.Card object at 0x1481fbc70>, <set_utils.cards.Card object at 0x1481fbdf0>, <set_utils.cards.Card object at 0x1481fbc70>]",0,44,44,9,1,False,,False,0.9874090608209372,correct,sub,50,2023-05-02_18h34.48.781,Standard,
"[<set_utils.cards.Card object at 0x1481fbdf0>, <set_utils.cards.Card object at 0x1481fbc70>, <set_utils.cards.Card object at 0x1481fbca0>]",0,45,45,18,1,True,1,True,0.8610176388174295,correct,sub,50,2023-05-02_18h34.48.781,Standard,
"[<set_utils.cards.Card object at 0x1481fbc70>, <set_utils.cards.Card object at 0x1481fbdf0>, <set_utils.cards.Card object at 0x1481fbdf0>]",0,46,46,13,1,False,,True,1.609774406068027,incorrect,sub,50,2023-05-02_18h34.48.781,Standard,
"[<set_utils.cards.Card object at 0x1481fbca0>, <set_utils.cards.Card object at 0x1481fbdf0>, <set_utils.cards.Card object at 0x1481fbca0>]",0,47,47,31,1,False,,False,1.0964526599273086,correct,sub,50,2023-05-02_18h34.48.781,Standard,
"[<set_utils.cards.Card object at 0x1481fbdf0>, <set_utils.cards.Card object at 0x1481fbdf0>, <set_utils.cards.Card object at 0x1481fbdf0>]",0,48,48,24,1,True,0,True,1.592317740432918,correct,sub,50,2023-05-02_18h34.48.781,Standard,
"[<set_utils.cards.Card object at 0x1481fbc70>, <set_utils.cards.Card object at 0x1481fbdf0>, <set_utils.cards.Card object at 0x1481fbdf0>]",0,49,49,27,1,False,,False,1.816985814832151,correct,sub,50,2023-05-02_18h34.48.781,Standard,
"[<set_utils.cards.Card object at 0x1481fbf10>, <set_utils.cards.Card object at 0x148200070>, <set_utils.cards.Card object at 0x1481fbca0>]",0,0,0,12,2,False,,True,2.6086246371269226,incorrect,sub,50,2023-05-02_18h34.48.781,Standard,
"[<set_utils.cards.Card object at 0x1481fbe50>, <set_utils.cards.Card object at 0x148200070>, <set_utils.cards.Card object at 0x1481fbca0>]",0,1,1,17,2,False,,False,1.5644931076094508,correct,sub,50,2023-05-02_18h34.48.781,Standard,
"[<set_utils.cards.Card object at 0x1481fbfd0>, <set_utils.cards.Card object at 0x1481fbf70>, <set_utils.cards.Card object at 0x1481fbdf0>]",0,2,2,47,2,False,,False,2.1768443156033754,correct,sub,50,2023-05-02_18h34.48.781,Standard,
"[<set_utils.cards.Card object at 0x148200070>, <set_utils.cards.Card object at 0x1481fbf10>, <set_utils.cards.Card object at 0x1481fbe50>]",0,3,3,4,2,False,,True,1.9680949412286282,incorrect,sub,50,2023-05-02_18h34.48.781,Standard,
"[<set_utils.cards.Card object at 0x1481fbdf0>, <set_utils.cards.Card object at 0x1481fbca0>, <set_utils.cards.Card object at 0x1481fbeb0>]",0,4,4,24,2,False,,False,1.880267838947475,correct,sub,50,2023-05-02_18h34.48.781,Standard,
"[<set_utils.cards.Card object at 0x1481fbc70>, <set_utils.cards.Card object at 0x1481fbdf0>, <set_utils.cards.Card object at 0x1481fbca0>]",0,5,5,33,2,True,1,True,1.6590338563546538,correct,sub,50,2023-05-02_18h34.48.781,Standard,
"[<set_utils.cards.Card object at 0x1481fbca0>, <set_utils.cards.Card object at 0x1481fbfd0>, <set_utils.cards.Card object at 0x1481fbf10>]",0,6,6,36,2,True,2,False,0.8958194833248854,incorrect,sub,50,2023-05-02_18h34.48.781,Standard,
"[<set_utils.cards.Card object at 0x1481fbc70>, <set_utils.cards.Card object at 0x1481fbf70>, <set_utils.cards.Card object at 0x1481fbf10>]",0,7,7,40,2,True,2,True,1.0550673473626375,correct,sub,50,2023-05-02_18h34.48.781,Standard,
"[<set_utils.cards.Card object at 0x1481fbeb0>, <set_utils.cards.Card object at 0x1481fbf70>, <set_utils.cards.Card object at 0x1481fbf10>]",0,8,8,2,2,False,,True,1.1189711447805166,incorrect,sub,50,2023-05-02_18h34.48.781,Standard,
"[<set_utils.cards.Card object at 0x148200070>, <set_utils.cards.Card object at 0x1481fbfd0>, <set_utils.cards.Card object at 0x1481fbf70>]",0,9,9,37,2,True,1,False,2.520238266326487,incorrect,sub,50,2023-05-02_18h34.48.781,Standard,
"[<set_utils.cards.Card object at 0x1481fbdf0>, <set_utils.cards.Card object at 0x1481fbfd0>, <set_utils.cards.Card object at 0x1481fbf70>]",0,10,10,41,2,False,,True,1.7555602742359042,incorrect,sub,50,2023-05-02_18h34.48.781,Standard,
"[<set_utils.cards.Card object at 0x1481fbe50>, <set_utils.cards.Card object at 0x1481fbf70>, <set_utils.cards.Card object at 0x1481fbfd0>]",0,11,11,38,2,False,,False,1.897342505864799,correct,sub,50,2023-05-02_18h34.48.781,Standard,
"[<set_utils.cards.Card object at 0x1481fbeb0>, <set_utils.cards.Card object at 0x1481fbc70>, <set_utils.cards.Card object at 0x1481fbfd0>]",0,12,12,29,2,True,1,False,3.4127035923302174,incorrect,sub,50,2023-05-02_18h34.48.781,Standard,
"[<set_utils.cards.Card object at 0x1481fbe50>, <set_utils.cards.Card object at 0x1481fbca0>, <set_utils.cards.Card object at 0x1481fbf70>]",0,13,13,7,2,True,1,True,0.8266343213617802,correct,sub,50,2023-05-02_18h34.48.781,Standard,
"[<set_utils.cards.Card object at 0x1481fbca0>, <set_utils.cards.Card object at 0x1481fbc70>, <set_utils.cards.Card object at 0x1481fbf70>]",0,14,14,8,2,False,,True,1.2192900236696005,incorrect,sub,50,2023-05-02_18h34.48.781,Standard,
"[<set_utils.cards.Card object at 0x1481fbf70>, <set_utils.cards.Card object at 0x1481fbc70>, <set_utils.cards.Card object at 0x1481fbf10>]",0,15,15,3,2,True,2,False,0.8813377032056451,incorrect,sub,50,2023-05-02_18h34.48.781,Standard,
"[<set_utils.cards.Card object at 0x1481fbdf0>, <set_utils.cards.Card object at 0x1481fbf10>, <set_utils.cards.Card object at 0x1481fbc70>]",0,16,16,45,2,False,,True,2.2622743668034673,incorrect,sub,50,2023-05-02_18h34.48.781,Standard,
"[<set_utils.cards.Card object at 0x1481fbf10>, <set_utils.cards.Card object at 0x1481fbdf0>, <set_utils.cards.Card object at 0x148200070>]",0,17,17,23,2,True,1,False,4.029234889894724,incorrect,sub,50,2023-05-02_18h34.48.781,Standard,
"[<set_utils.cards.Card object at 0x148200070>, <set_utils.cards.Card object at 0x1481fbfd0>, <set_utils.cards.Card object at 0x1481fbf70>]",0,18,18,28,2,True,1,True,2.260572623461485,correct,sub,50,2023-05-02_18h34.48.781,Standard,
"[<set_utils.cards.Card object at 0x148200070>, <set_utils.cards.Card object at 0x1481fbf70>, <set_utils.cards.Card object at 0x1481fbfd0>]",0,19,19,46,2,True,1,False,2.2511218609288335,incorrect,sub,50,2023-05-02_18h34.48.781,Standard,
"[<set_utils.cards.Card object at 0x1481fbe50>, <set_utils.cards.Card object at 0x148200070>, <set_utils.cards.Card object at 0x1481fbc70>]",0,20,20,6,2,True,2,True,0.6843767361715436,correct,sub,50,2023-05-02_18h34.48.781,Standard,
"[<set_utils.cards.Card object at 0x1481fbc70>, <set_utils.cards.Card object at 0x1481fbca0>, <set_utils.cards.Card object at 0x1481fbeb0>]",0,21,21,21,2,False,,True,1.2460096245631576,incorrect,sub,50,2023-05-02_18h34.48.781,Standard,
"[<set_utils.cards.Card object at 0x1481fbf10>, <set_utils.cards.Card object at 0x1481fbca0>, <set_utils.cards.Card object at 0x1481fbfd0>]",0,22,22,32,2,True,2,False,0.49995983112603426,incorrect,sub,50,2023-05-02_18h34.48.781,Standard,
"[<set_utils.cards.Card object at 0x1481fbeb0>, <set_utils.cards.Card object at 0x148200070>, <set_utils.cards.Card object at 0x1481fbca0>]",0,23,23,13,2,True,2,True,1.0327852563932538,correct,sub,50,2023-05-02_18h34.48.781,Standard,
"[<set_utils.cards.Card object at 0x1481fbca0>, <set_utils.cards.Card object at 0x1481fbeb0>, <set_utils.cards.Card object at 0x148200070>]",0,24,24,39,2,True,2,True,1.1235393127426505,correct,sub,50,2023-05-02_18h34.48.781,Standard,
"[<set_utils.cards.Card object at 0x1481fbca0>, <set_utils.cards.Card object at 0x1481fbf10>, <set_utils.cards.Card object at 0x148200070>]",0,25,25,1,2,False,,True,2.384827892296016,incorrect,sub,50,2023-05-02_18h34.48.781,Standard,
"[<set_utils.cards.Card object at 0x1481fbeb0>, <set_utils.cards.Card object at 0x1481fbe50>, <set_utils.cards.Card object at 0x1481fbf10>]",0,26,26,48,2,True,1,False,1.046855565160513,incorrect,sub,50,2023-05-02_18h34.48.781,Standard,
"[<set_utils.cards.Card object at 0x1481fbe50>, <set_utils.cards.Card object at 0x1481fbeb0>, <set_utils.cards.Card object at 0x1481fbdf0>]",0,27,27,27,2,False,,True,4.68491284083575,incorrect,sub,50,2023-05-02_18h34.48.781,Standard,
"[<set_utils.cards.Card object at 0x1481fbf70>, <set_utils.cards.Card object at 0x148200070>, <set_utils.cards.Card object at 0x1481fbfd0>]",0,28,28,15,2,True,1,False,2.2755509028211236,incorrect,sub,50,2023-05-02_18h34.48.781,Standard,
"[<set_utils.cards.Card object at 0x1481fbf10>, <set_utils.cards.Card object at 0x1481fbe50>, <set_utils.cards.Card object at 0x148200070>]",0,29,29,34,2,False,,True,3.1416469514369965,incorrect,sub,50,2023-05-02_18h34.48.781,Standard,
"[<set_utils.cards.Card object at 0x1481fbfd0>, <set_utils.cards.Card object at 0x1481fbf70>, <set_utils.cards.Card object at 0x148200070>]",0,30,30,0,2,True,1,False,2.653578066267073,incorrect,sub,50,2023-05-02_18h34.48.781,Standard,
"[<set_utils.cards.Card object at 0x1481fbdf0>, <set_utils.cards.Card object at 0x1481fbc70>, <set_utils.cards.Card object at 0x1481fbf10>]",0,31,31,31,2,False,,True,1.3386548394337296,incorrect,sub,50,2023-05-02_18h34.48.781,Standard,
"[<set_utils.cards.Card object at 0x1481fbca0>, <set_utils.cards.Card object at 0x1481fbeb0>, <set_utils.cards.Card object at 0x1481fbf10>]",0,32,32,42,2,False,,True,2.3948659179732203,incorrect,sub,50,2023-05-02_18h34.48.781,Standard,
"[<set_utils.cards.Card object at 0x1481fbe50>, <set_utils.cards.Card object at 0x1481fbfd0>, <set_utils.cards.Card object at 0x1481fbeb0>]",0,33,33,14,2,False,,False,2.5535669857636094,correct,sub,50,2023-05-02_18h34.48.781,Standard,
"[<set_utils.cards.Card object at 0x1481fbe50>, <set_utils.cards.Card object at 0x1481fbeb0>, <set_utils.cards.Card object at 0x1481fbc70>]",0,34,34,16,2,False,,True,2.7906315894797444,incorrect,sub,50,2023-05-02_18h34.48.781,Standard,
"[<set_utils.cards.Card object at 0x1481fbf70>, <set_utils.cards.Card object at 0x1481fbdf0>, <set_utils.cards.Card object at 0x1481fbe50>]",0,35,35,25,2,False,,False,1.2696167519316077,correct,sub,50,2023-05-02_18h34.48.781,Standard,
"[<set_utils.cards.Card object at 0x1481fbfd0>, <set_utils.cards.Card object at 0x1481fbe50>, <set_utils.cards.Card object at 0x1481fbdf0>]",0,36,36,43,2,True,2,False,2.7444173069670796,incorrect,sub,50,2023-05-02_18h34.48.781,Standard,
"[<set_utils.cards.Card object at 0x1481fbca0>, <set_utils.cards.Card object at 0x1481fbf70>, <set_utils.cards.Card object at 0x148200070>]",0,37,37,30,2,False,,False,3.9437120743095875,correct,sub,50,2023-05-02_18h34.48.781,Standard,
"[<set_utils.cards.Card object at 0x1481fbeb0>, <set_utils.cards.Card object at 0x1481fbf10>, <set_utils.cards.Card object at 0x148200070>]",0,38,38,26,2,False,,True,2.50924548599869,incorrect,sub,50,2023-05-02_18h34.48.781,Standard,
"[<set_utils.cards.Card object at 0x1481fbe50>, <set_utils.cards.Card object at 0x148200070>, <set_utils.cards.Card object at 0x1481fbc70>]",0,39,39,10,2,True,2,True,1.6360802613198757,correct,sub,50,2023-05-02_18h34.48.781,Standard,
"[<set_utils.cards.Card object at 0x1481fbdf0>, <set_utils.cards.Card object at 0x1481fbe50>, <set_utils.cards.Card object at 0x1481fbf10>]",0,40,40,49,2,False,,False,5.044649327173829,correct,sub,50,2023-05-02_18h34.48.781,Standard,
"[<set_utils.cards.Card object at 0x1481fbc70>, <set_utils.cards.Card object at 0x1481fbca0>, <set_utils.cards.Card object at 0x1481fbdf0>]",0,41,41,44,2,True,1,False,5.727892643772066,incorrect,sub,50,2023-05-02_18h34.48.781,Standard,
"[<set_utils.cards.Card object at 0x1481fbfd0>, <set_utils.cards.Card object at 0x1481fbc70>, <set_utils.cards.Card object at 0x1481fbf10>]",0,42,42,22,2,False,,True,0.9005657508969307,incorrect,sub,50,2023-05-02_18h34.48.781,Standard,
"[<set_utils.cards.Card object at 0x1481fbf10>, <set_utils.cards.Card object at 0x1481fbf70>, <set_utils.cards.Card object at 0x1481fbc70>]",0,43,43,35,2,True,2,True,2.267876770347357,correct,sub,50,2023-05-02_18h34.48.781,Standard,
"[<set_utils.cards.Card object at 0x1481fbc70>, <set_utils.cards.Card object at 0x1481fbe50>, <set_utils.cards.Card object at 0x148200070>]",0,44,44,5,2,True,2,True,2.3766908077523112,correct,sub,50,2023-05-02_18h34.48.781,Standard,
"[<set_utils.cards.Card object at 0x1481fbf70>, <set_utils.cards.Card object at 0x1481fbfd0>, <set_utils.cards.Card object at 0x1481fbe50>]",0,45,45,19,2,False,,True,1.680009731091559,incorrect,sub,50,2023-05-02_18h34.48.781,Standard,
"[<set_utils.cards.Card object at 0x1481fbdf0>, <set_utils.cards.Card object at 0x1481fbf10>, <set_utils.cards.Card object at 0x1481fbf70>]",0,46,46,9,2,False,,False,3.83643766772002,correct,sub,50,2023-05-02_18h34.48.781,Standard,
"[<set_utils.cards.Card object at 0x1481fbca0>, <set_utils.cards.Card object at 0x1481fbf70>, <set_utils.cards.Card object at 0x1481fbe50>]",0,47,47,11,2,True,1,True,4.458059788681567,correct,sub,50,2023-05-02_18h34.48.781,Standard,
"[<set_utils.cards.Card object at 0x1481fbe50>, <set_utils.cards.Card object at 0x148200070>, <set_utils.cards.Card object at 0x1481fbc70>]",0,48,48,18,2,True,2,False,2.2228650841861963,incorrect,sub,50,2023-05-02_18h34.48.781,Standard,
"[<set_utils.cards.Card object at 0x1481fbe50>, <set_utils.cards.Card object at 0x1481fbf70>, <set_utils.cards.Card object at 0x1481fbca0>]",0,49,49,20,2,True,1,True,3.1820658929646015,correct,sub,50,2023-05-02_18h34.48.781,Standard,
"[<set_utils.cards.Card object at 0x148200250>, <set_utils.cards.Card object at 0x1481fbe50>, <set_utils.cards.Card object at 0x148200610>]",0,0,0,47,3,True,2,True,3.1461967695504427,correct,sub,50,2023-05-02_18h34.48.781,Standard,
"[<set_utils.cards.Card object at 0x148200610>, <set_utils.cards.Card object at 0x148200370>, <set_utils.cards.Card object at 0x1481fbca0>]",0,1,1,7,3,True,3,True,1.9583460297435522,correct,sub,50,2023-05-02_18h34.48.781,Standard,
"[<set_utils.cards.Card object at 0x1481fbfd0>, <set_utils.cards.Card object at 0x1482005b0>, <set_utils.cards.Card object at 0x148200490>]",0,2,2,36,3,False,,False,1.3147924598306417,correct,sub,50,2023-05-02_18h34.48.781,Standard,
"[<set_utils.cards.Card object at 0x1481fbdf0>, <set_utils.cards.Card object at 0x148200190>, <set_utils.cards.Card object at 0x1482004f0>]",0,3,3,46,3,True,1,False,1.2976382421329618,incorrect,sub,50,2023-05-02_18h34.48.781,Standard,
"[<set_utils.cards.Card object at 0x1482000d0>, <set_utils.cards.Card object at 0x148200550>, <set_utils.cards.Card object at 0x1481fbf70>]",0,4,4,3,3,True,2,True,2.3232718128710985,correct,sub,50,2023-05-02_18h34.48.781,Standard,
"[<set_utils.cards.Card object at 0x148200670>, <set_utils.cards.Card object at 0x1481fbfd0>, <set_utils.cards.Card object at 0x148200490>]",0,5,5,39,3,False,,False,1.9934448078274727,correct,sub,50,2023-05-02_18h34.48.781,Standard,
"[<set_utils.cards.Card object at 0x1482001f0>, <set_utils.cards.Card object at 0x148200430>, <set_utils.cards.Card object at 0x1481fbf70>]",0,6,6,16,3,True,2,True,1.6107648564502597,correct,sub,50,2023-05-02_18h34.48.781,Standard,
"[<set_utils.cards.Card object at 0x1481fbf70>, <set_utils.cards.Card object at 0x1481fbeb0>, <set_utils.cards.Card object at 0x1481fbdf0>]",0,7,7,34,3,True,2,False,2.4131202287971973,incorrect,sub,50,2023-05-02_18h34.48.781,Standard,
"[<set_utils.cards.Card object at 0x148200550>, <set_utils.cards.Card object at 0x1482006d0>, <set_utils.cards.Card object at 0x148200430>]",0,8,8,15,3,False,,True,2.6840874468907714,incorrect,sub,50,2023-05-02_18h34.48.781,Standard,
"[<set_utils.cards.Card object at 0x1482002b0>, <set_utils.cards.Card object at 0x1481fbfd0>, <set_utils.cards.Card object at 0x148200430>]",0,9,9,9,3,True,3,False,2.1013079583644867,incorrect,sub,50,2023-05-02_18h34.48.781,Standard,
"[<set_utils.cards.Card object at 0x148200370>, <set_utils.cards.Card object at 0x1482004f0>, <set_utils.cards.Card object at 0x1481fbe50>]",0,10,10,31,3,True,3,True,3.36799668520689,correct,sub,50,2023-05-02_18h34.48.781,Standard,
"[<set_utils.cards.Card object at 0x1482004f0>, <set_utils.cards.Card object at 0x1482001f0>, <set_utils.cards.Card object at 0x1481fbfd0>]",0,11,11,45,3,True,3,True,1.4211554462090135,correct,sub,50,2023-05-02_18h34.48.781,Standard,
"[<set_utils.cards.Card object at 0x148200610>, <set_utils.cards.Card object at 0x148200190>, <set_utils.cards.Card object at 0x148200070>]",0,12,12,14,3,True,2,False,1.5305202109739184,incorrect,sub,50,2023-05-02_18h34.48.781,Standard,
"[<set_utils.cards.Card object at 0x1482002b0>, <set_utils.cards.Card object at 0x1482001f0>, <set_utils.cards.Card object at 0x148200730>]",0,13,13,22,3,False,,True,3.794782386161387,incorrect,sub,50,2023-05-02_18h34.48.781,Standard,
"[<set_utils.cards.Card object at 0x148200070>, <set_utils.cards.Card object at 0x148200130>, <set_utils.cards.Card object at 0x1481fbf70>]",0,14,14,41,3,False,,False,3.6332000559195876,correct,sub,50,2023-05-02_18h34.48.781,Standard,
"[<set_utils.cards.Card object at 0x148200730>, <set_utils.cards.Card object at 0x1481fbc70>, <set_utils.cards.Card object at 0x148200310>]",0,15,15,20,3,False,,False,1.0737769212573767,correct,sub,50,2023-05-02_18h34.48.781,Standard,
"[<set_utils.cards.Card object at 0x1482000d0>, <set_utils.cards.Card object at 0x148200550>, <set_utils.cards.Card object at 0x1481fbe50>]",0,16,16,33,3,False,,True,1.434943675994873,incorrect,sub,50,2023-05-02_18h34.48.781,Standard,
"[<set_utils.cards.Card object at 0x1482000d0>, <set_utils.cards.Card object at 0x1481fbfd0>, <set_utils.cards.Card object at 0x1481fbca0>]",0,17,17,35,3,False,,False,1.9981977781280875,correct,sub,50,2023-05-02_18h34.48.781,Standard,
"[<set_utils.cards.Card object at 0x1481fbeb0>, <set_utils.cards.Card object at 0x1481fbf70>, <set_utils.cards.Card object at 0x1481fbdf0>]",0,18,18,0,3,True,2,False,1.39247193839401,incorrect,sub,50,2023-05-02_18h34.48.781,Standard,
"[<set_utils.cards.Card object at 0x148200550>, <set_utils.cards.Card object at 0x1481fbf10>, <set_utils.cards.Card object at 0x148200250>]",0,19,19,26,3,True,2,False,4.871251489035785,incorrect,sub,50,2023-05-02_18h34.48.781,Standard,
"[<set_utils.cards.Card object at 0x1481fbca0>, <set_utils.cards.Card object at 0x1481fbc70>, <set_utils.cards.Card object at 0x1481fbdf0>]",0,20,20,13,3,True,1,False,1.458620765246451,incorrect,sub,50,2023-05-02_18h34.48.781,Standard,
"[<set_utils.cards.Card object at 0x1482006d0>, <set_utils.cards.Card object at 0x148200670>, <set_utils.cards.Card object at 0x1481fbf70>]",0,21,21,43,3,False,,False,2.355261718854308,correct,sub,50,2023-05-02_18h34.48.781,Standard,
"[<set_utils.cards.Card object at 0x1481fbeb0>, <set_utils.cards.Card object at 0x1482001f0>, <set_utils.cards.Card object at 0x148200610>]",0,22,22,4,3,True,2,False,2.6906163496896625,incorrect,sub,50,2023-05-02_18h34.48.781,Standard,
"[<set_utils.cards.Card object at 0x1482006d0>, <set_utils.cards.Card object at 0x1481fbfd0>, <set_utils.cards.Card object at 0x148200670>]",0,23,23,28,3,False,,True,0.9910246096551418,incorrect,sub,50,2023-05-02_18h34.48.781,Standard,
"[<set_utils.cards.Card object at 0x148200190>, <set_utils.cards.Card object at 0x1481fbdf0>, <set_utils.cards.Card object at 0x1482006d0>]",0,24,24,37,3,False,,True,0.6226787278428674,incorrect,sub,50,2023-05-02_18h34.48.781,Standard,
"[<set_utils.cards.Card object at 0x148200550>, <set_utils.cards.Card object at 0x148200670>, <set_utils.cards.Card object at 0x1481fbfd0>]",0,25,25,2,3,False,,False,2.012307830154896,correct,sub,50,2023-05-02_18h34.48.781,Standard,
"[<set_utils.cards.Card object at 0x148200610>, <set_utils.cards.Card object at 0x1481fbe50>, <set_utils.cards.Card object at 0x148200250>]",0,26,26,27,3,True,2,False,4.926137149333954,incorrect,sub,50,2023-05-02_18h34.48.781,Standard,
"[<set_utils.cards.Card object at 0x148200550>, <set_utils.cards.Card object at 0x1481fbe50>, <set_utils.cards.Card object at 0x1482001f0>]",0,27,27,25,3,True,1,True,1.5802629766985774,correct,sub,50,2023-05-02_18h34.48.781,Standard,
"[<set_utils.cards.Card object at 0x148200730>, <set_utils.cards.Card object at 0x1482003d0>, <set_utils.cards.Card object at 0x148200070>]",0,28,28,19,3,True,1,True,0.9218440093100071,correct,sub,50,2023-05-02_18h34.48.781,Standard,
"[<set_utils.cards.Card object at 0x1482001f0>, <set_utils.cards.Card object at 0x148200730>, <set_utils.cards.Card object at 0x148200370>]",0,29,29,32,3,False,,False,1.227650630287826,correct,sub,50,2023-05-02_18h34.48.781,Standard,
"[<set_utils.cards.Card object at 0x1481fbeb0>, <set_utils.cards.Card object at 0x148200730>, <set_utils.cards.Card object at 0x148200430>]",0,30,30,21,3,False,,False,1.224070088006556,correct,sub,50,2023-05-02_18h34.48.781,Standard,
"[<set_utils.cards.Card object at 0x1482001f0>, <set_utils.cards.Card object at 0x148200370>, <set_utils.cards.Card object at 0x1482005b0>]",0,31,31,29,3,False,,False,1.8991643348708749,correct,sub,50,2023-05-02_18h34.48.781,Standard,
"[<set_utils.cards.Card object at 0x148200370>, <set_utils.cards.Card object at 0x1481fbca0>, <set_utils.cards.Card object at 0x148200610>]",0,32,32,38,3,True,3,False,2.330316656269133,incorrect,sub,50,2023-05-02_18h34.48.781,Standard,
"[<set_utils.cards.Card object at 0x1481fbdf0>, <set_utils.cards.Card object at 0x1481fbfd0>, <set_utils.cards.Card object at 0x148200370>]",0,33,33,40,3,False,,True,1.3113575270399451,incorrect,sub,50,2023-05-02_18h34.48.781,Standard,
"[<set_utils.cards.Card object at 0x148200610>, <set_utils.cards.Card object at 0x1481fbfd0>, <set_utils.cards.Card object at 0x1482000d0>]",0,34,34,1,3,True,3,False,2.192846667021513,incorrect,sub,50,2023-05-02_18h34.48.781,Standard,
"[<set_utils.cards.Card object at 0x1481fbeb0>, <set_utils.cards.Card object at 0x148200250>, <set_utils.cards.Card object at 0x1482005b0>]",0,35,35,24,3,True,1,True,1.3791319765150547,correct,sub,50,2023-05-02_18h34.48.781,Standard,
"[<set_utils.cards.Card object at 0x1481fbf10>, <set_utils.cards.Card object at 0x1482004f0>, <set_utils.cards.Card object at 0x1482003d0>]",0,36,36,17,3,True,2,True,1.5628411434590816,correct,sub,50,2023-05-02_18h34.48.781,Standard,
"[<set_utils.cards.Card object at 0x148200670>, <set_utils.cards.Card object at 0x1482000d0>, <set_utils.cards.Card object at 0x1481fbf70>]",0,37,37,30,3,False,,False,1.8419042341411114,correct,sub,50,2023-05-02_18h34.48.781,Standard,
"[<set_utils.cards.Card object at 0x1481fbe50>, <set_utils.cards.Card object at 0x148200490>, <set_utils.cards.Card object at 0x148200070>]",0,38,38,5,3,False,,False,1.6720770290121436,correct,sub,50,2023-05-02_18h34.48.781,Standard,
"[<set_utils.cards.Card object at 0x148200610>, <set_utils.cards.Card object at 0x1482005b0>, <set_utils.cards.Card object at 0x148200130>]",0,39,39,12,3,False,,True,1.5751978186890483,incorrect,sub,50,2023-05-02_18h34.48.781,Standard,
"[<set_utils.cards.Card object at 0x1481fbf70>, <set_utils.cards.Card object at 0x148200310>, <set_utils.cards.Card object at 0x148200670>]",0,40,40,44,3,True,1,True,1.1829663943499327,correct,sub,50,2023-05-02_18h34.48.781,Standard,
"[<set_utils.cards.Card object at 0x1482000d0>, <set_utils.cards.Card object at 0x148200310>, <set_utils.cards.Card object at 0x1481fbeb0>]",0,41,41,42,3,False,,False,1.3050924502313137,correct,sub,50,2023-05-02_18h34.48.781,Standard,
"[<set_utils.cards.Card object at 0x1482003d0>, <set_utils.cards.Card object at 0x148200550>, <set_utils.cards.Card object at 0x1481fbc70>]",0,42,42,11,3,True,3,False,1.230455543845892,incorrect,sub,50,2023-05-02_18h34.48.781,Standard,
"[<set_utils.cards.Card object at 0x1482006d0>, <set_utils.cards.Card object at 0x148200070>, <set_utils.cards.Card object at 0x1482002b0>]",0,43,43,8,3,False,,False,3.4468395616859198,correct,sub,50,2023-05-02_18h34.48.781,Standard,
"[<set_utils.cards.Card object at 0x1481fbf10>, <set_utils.cards.Card object at 0x1481fbca0>, <set_utils.cards.Card object at 0x1481fbfd0>]",0,44,44,10,3,True,2,False,1.3128122789785266,incorrect,sub,50,2023-05-02_18h34.48.781,Standard,
"[<set_utils.cards.Card object at 0x148200430>, <set_utils.cards.Card object at 0x148200730>, <set_utils.cards.Card object at 0x1482005b0>]",0,45,45,18,3,True,2,False,1.571578330360353,incorrect,sub,50,2023-05-02_18h34.48.781,Standard,
"[<set_utils.cards.Card object at 0x1482004f0>, <set_utils.cards.Card object at 0x1481fbeb0>, <set_utils.cards.Card object at 0x1481fbdf0>]",0,46,46,49,3,False,,True,1.3346099834889174,incorrect,sub,50,2023-05-02_18h34.48.781,Standard,
"[<set_utils.cards.Card object at 0x1482002b0>, <set_utils.cards.Card object at 0x1481fbe50>, <set_utils.cards.Card object at 0x148200370>]",0,47,47,23,3,False,,False,1.7329745199531317,correct,sub,50,2023-05-02_18h34.48.781,Standard,
"[<set_utils.cards.Card object at 0x1481fbeb0>, <set_utils.cards.Card object at 0x148200730>, <set_utils.cards.Card object at 0x1482006d0>]",0,48,48,48,3,False,,True,3.8899349700659513,incorrect,sub,50,2023-05-02_18h34.48.781,Standard,
"[<set_utils.cards.Card object at 0x1482004f0>, <set_utils.cards.Card object at 0x1481fbdf0>, <set_utils.cards.Card object at 0x148200250>]",0,49,49,6,3,False,,False,1.5086328089237213,correct,sub,50,2023-05-02_18h34.48.781,Standard,
